#
# Results on Mon, 22 Jul 2024 10:48:27 GMT
# USER AGENT: Mozilla/5.0 (Macintosh; Intel Mac OS X 10.15; rv:128.0) Gecko/20100101 Firefox/128.0
# Design number was non-random = 0
#
# Columns below this comment are as follows:
# 1. Results reception time.
# 2. MD5 hash of participant's IP address.
# 3. Controller name.
# 4. Order number of item.
# 5. Inner element number.
# 6. Label.
# 7. Latin Square Group.
# 8. PennElementType.
# 9. PennElementName.
# 10. Parameter.
# 11. Value.
# 12. EventTime.
# 13. Comments.
1721645307,cd288710e9bf3387729f5dabac55861d,PennController,1,0,welcome,NULL,PennController,0,_Trial_,Start,1721645026706,NULL
1721645307,cd288710e9bf3387729f5dabac55861d,PennController,1,0,welcome,NULL,PennController,0,_Header_,Start,1721645026706,NULL
1721645307,cd288710e9bf3387729f5dabac55861d,PennController,1,0,welcome,NULL,PennController,0,_Header_,End,1721645026959,NULL
1721645307,cd288710e9bf3387729f5dabac55861d,PennController,1,0,welcome,NULL,PennController,0,_Trial_,End,1721645028460,NULL
# 13. ID.
# 14. Comments.
1721645307,cd288710e9bf3387729f5dabac55861d,PennController,126,0,consent,NULL,PennController,1,_Trial_,Start,1721645028468,morgan-test,NULL
1721645307,cd288710e9bf3387729f5dabac55861d,PennController,126,0,consent,NULL,PennController,1,_Header_,Start,1721645028468,morgan-test,NULL
1721645307,cd288710e9bf3387729f5dabac55861d,PennController,126,0,consent,NULL,PennController,1,_Header_,End,1721645028721,morgan-test,NULL
1721645307,cd288710e9bf3387729f5dabac55861d,PennController,126,0,consent,NULL,TextInput,ID,First,,1721645029630,morgan-test,m
1721645307,cd288710e9bf3387729f5dabac55861d,PennController,126,0,consent,NULL,TextInput,ID,Final,morgan-test,1721645031842,morgan-test,NULL
1721645307,cd288710e9bf3387729f5dabac55861d,PennController,126,0,consent,NULL,PennController,1,_Trial_,End,1721645031843,morgan-test,NULL
# 13. Comments.
1721645307,cd288710e9bf3387729f5dabac55861d,PennController,128,0,instructions1,NULL,PennController,3,_Trial_,Start,1721645031848,NULL
1721645307,cd288710e9bf3387729f5dabac55861d,PennController,128,0,instructions1,NULL,PennController,3,_Header_,Start,1721645031848,NULL
1721645307,cd288710e9bf3387729f5dabac55861d,PennController,128,0,instructions1,NULL,PennController,3,_Header_,End,1721645032103,NULL
1721645307,cd288710e9bf3387729f5dabac55861d,PennController,128,0,instructions1,NULL,PennController,3,_Trial_,End,1721645033162,NULL
1721645307,cd288710e9bf3387729f5dabac55861d,PennController,129,0,instructions2,NULL,PennController,4,_Trial_,Start,1721645033174,NULL
1721645307,cd288710e9bf3387729f5dabac55861d,PennController,129,0,instructions2,NULL,PennController,4,_Header_,Start,1721645033174,NULL
1721645307,cd288710e9bf3387729f5dabac55861d,PennController,129,0,instructions2,NULL,PennController,4,_Header_,End,1721645033426,NULL
1721645307,cd288710e9bf3387729f5dabac55861d,PennController,129,0,instructions2,NULL,PennController,4,_Trial_,End,1721645034715,NULL
1721645307,cd288710e9bf3387729f5dabac55861d,PennController,130,0,instructions3,NULL,PennController,5,_Trial_,Start,1721645034724,NULL
1721645307,cd288710e9bf3387729f5dabac55861d,PennController,130,0,instructions3,NULL,PennController,5,_Header_,Start,1721645034724,NULL
1721645307,cd288710e9bf3387729f5dabac55861d,PennController,130,0,instructions3,NULL,PennController,5,_Header_,End,1721645034974,NULL
1721645307,cd288710e9bf3387729f5dabac55861d,PennController,130,0,instructions3,NULL,PennController,5,_Trial_,End,1721645039697,NULL
1721645307,cd288710e9bf3387729f5dabac55861d,PennController,131,0,endinstructions,NULL,PennController,6,_Trial_,Start,1721645039707,NULL
1721645307,cd288710e9bf3387729f5dabac55861d,PennController,131,0,endinstructions,NULL,PennController,6,_Header_,Start,1721645039707,NULL
1721645307,cd288710e9bf3387729f5dabac55861d,PennController,131,0,endinstructions,NULL,PennController,6,_Header_,End,1721645039963,NULL
1721645307,cd288710e9bf3387729f5dabac55861d,PennController,131,0,endinstructions,NULL,PennController,6,_Trial_,End,1721645041153,NULL
# 13. ID.
# 14. ReactionTime.
# 15. Word.
# 16. Valence.
# 17. Comments.
1721645307,cd288710e9bf3387729f5dabac55861d,PennController,111,0,test,NULL,PennController,116,_Trial_,Start,1721645041162,undefined,1860,shellfish,neutral,NULL
1721645307,cd288710e9bf3387729f5dabac55861d,PennController,111,0,test,NULL,PennController,116,_Header_,Start,1721645041163,undefined,1860,shellfish,neutral,NULL
1721645307,cd288710e9bf3387729f5dabac55861d,PennController,111,0,test,NULL,PennController,116,_Header_,End,1721645041418,undefined,1860,shellfish,neutral,NULL
1721645307,cd288710e9bf3387729f5dabac55861d,PennController,111,0,test,NULL,Selector,unnamed-Selector,Selection,positive,1721645043782,undefined,1860,shellfish,neutral,negative;positive;neutral
1721645307,cd288710e9bf3387729f5dabac55861d,PennController,111,0,test,NULL,PennController,116,_Trial_,End,1721645043784,undefined,1860,shellfish,neutral,NULL
1721645307,cd288710e9bf3387729f5dabac55861d,PennController,16,0,test,NULL,PennController,21,_Trial_,Start,1721645043791,undefined,1721,killer,negative,NULL
1721645307,cd288710e9bf3387729f5dabac55861d,PennController,16,0,test,NULL,PennController,21,_Header_,Start,1721645043791,undefined,1721,killer,negative,NULL
1721645307,cd288710e9bf3387729f5dabac55861d,PennController,16,0,test,NULL,PennController,21,_Header_,End,1721645044042,undefined,1721,killer,negative,NULL
1721645307,cd288710e9bf3387729f5dabac55861d,PennController,16,0,test,NULL,Selector,unnamed-Selector,Selection,neutral,1721645046269,undefined,1721,killer,negative,negative;positive;neutral
1721645307,cd288710e9bf3387729f5dabac55861d,PennController,16,0,test,NULL,PennController,21,_Trial_,End,1721645046271,undefined,1721,killer,negative,NULL
1721645307,cd288710e9bf3387729f5dabac55861d,PennController,90,0,test,NULL,PennController,95,_Trial_,Start,1721645046276,undefined,2346,juke,neutral,NULL
1721645307,cd288710e9bf3387729f5dabac55861d,PennController,90,0,test,NULL,PennController,95,_Header_,Start,1721645046276,undefined,2346,juke,neutral,NULL
1721645307,cd288710e9bf3387729f5dabac55861d,PennController,90,0,test,NULL,PennController,95,_Header_,End,1721645046531,undefined,2346,juke,neutral,NULL
1721645307,cd288710e9bf3387729f5dabac55861d,PennController,90,0,test,NULL,Selector,unnamed-Selector,Selection,positive,1721645049383,undefined,2346,juke,neutral,negative;positive;neutral
1721645307,cd288710e9bf3387729f5dabac55861d,PennController,90,0,test,NULL,PennController,95,_Trial_,End,1721645049384,undefined,2346,juke,neutral,NULL
1721645307,cd288710e9bf3387729f5dabac55861d,PennController,40,0,test,NULL,PennController,45,_Trial_,Start,1721645049389,undefined,1823,delight,positive,NULL
1721645307,cd288710e9bf3387729f5dabac55861d,PennController,40,0,test,NULL,PennController,45,_Header_,Start,1721645049389,undefined,1823,delight,positive,NULL
1721645307,cd288710e9bf3387729f5dabac55861d,PennController,40,0,test,NULL,PennController,45,_Header_,End,1721645049640,undefined,1823,delight,positive,NULL
1721645307,cd288710e9bf3387729f5dabac55861d,PennController,40,0,test,NULL,Selector,unnamed-Selector,Selection,negative,1721645051967,undefined,1823,delight,positive,negative;positive;neutral
1721645307,cd288710e9bf3387729f5dabac55861d,PennController,40,0,test,NULL,PennController,45,_Trial_,End,1721645051968,undefined,1823,delight,positive,NULL
1721645307,cd288710e9bf3387729f5dabac55861d,PennController,96,0,test,NULL,PennController,101,_Trial_,Start,1721645051975,undefined,1610,net,neutral,NULL
1721645307,cd288710e9bf3387729f5dabac55861d,PennController,96,0,test,NULL,PennController,101,_Header_,Start,1721645051975,undefined,1610,net,neutral,NULL
1721645307,cd288710e9bf3387729f5dabac55861d,PennController,96,0,test,NULL,PennController,101,_Header_,End,1721645052226,undefined,1610,net,neutral,NULL
1721645307,cd288710e9bf3387729f5dabac55861d,PennController,96,0,test,NULL,Selector,unnamed-Selector,Selection,positive,1721645054342,undefined,1610,net,neutral,negative;positive;neutral
1721645307,cd288710e9bf3387729f5dabac55861d,PennController,96,0,test,NULL,PennController,101,_Trial_,End,1721645054342,undefined,1610,net,neutral,NULL
1721645307,cd288710e9bf3387729f5dabac55861d,PennController,121,0,test,NULL,PennController,126,_Trial_,Start,1721645054348,undefined,1419,trombone,neutral,NULL
1721645307,cd288710e9bf3387729f5dabac55861d,PennController,121,0,test,NULL,PennController,126,_Header_,Start,1721645054348,undefined,1419,trombone,neutral,NULL
1721645307,cd288710e9bf3387729f5dabac55861d,PennController,121,0,test,NULL,PennController,126,_Header_,End,1721645054602,undefined,1419,trombone,neutral,NULL
1721645307,cd288710e9bf3387729f5dabac55861d,PennController,121,0,test,NULL,Selector,unnamed-Selector,Selection,positive,1721645056525,undefined,1419,trombone,neutral,negative;positive;neutral
1721645307,cd288710e9bf3387729f5dabac55861d,PennController,121,0,test,NULL,PennController,126,_Trial_,End,1721645056527,undefined,1419,trombone,neutral,NULL
1721645307,cd288710e9bf3387729f5dabac55861d,PennController,95,0,test,NULL,PennController,100,_Trial_,Start,1721645056533,undefined,1372,mat,neutral,NULL
1721645307,cd288710e9bf3387729f5dabac55861d,PennController,95,0,test,NULL,PennController,100,_Header_,Start,1721645056533,undefined,1372,mat,neutral,NULL
1721645307,cd288710e9bf3387729f5dabac55861d,PennController,95,0,test,NULL,PennController,100,_Header_,End,1721645056786,undefined,1372,mat,neutral,NULL
1721645307,cd288710e9bf3387729f5dabac55861d,PennController,95,0,test,NULL,Selector,unnamed-Selector,Selection,positive,1721645058664,undefined,1372,mat,neutral,negative;positive;neutral
1721645307,cd288710e9bf3387729f5dabac55861d,PennController,95,0,test,NULL,PennController,100,_Trial_,End,1721645058666,undefined,1372,mat,neutral,NULL
1721645307,cd288710e9bf3387729f5dabac55861d,PennController,115,0,test,NULL,PennController,120,_Trial_,Start,1721645058671,undefined,2420,strand,neutral,NULL
1721645307,cd288710e9bf3387729f5dabac55861d,PennController,115,0,test,NULL,PennController,120,_Header_,Start,1721645058671,undefined,2420,strand,neutral,NULL
1721645307,cd288710e9bf3387729f5dabac55861d,PennController,115,0,test,NULL,PennController,120,_Header_,End,1721645058922,undefined,2420,strand,neutral,NULL
1721645307,cd288710e9bf3387729f5dabac55861d,PennController,115,0,test,NULL,Selector,unnamed-Selector,Selection,positive,1721645061847,undefined,2420,strand,neutral,negative;positive;neutral
1721645307,cd288710e9bf3387729f5dabac55861d,PennController,115,0,test,NULL,PennController,120,_Trial_,End,1721645061848,undefined,2420,strand,neutral,NULL
1721645307,cd288710e9bf3387729f5dabac55861d,PennController,35,0,test,NULL,PennController,40,_Trial_,Start,1721645061854,undefined,1392,accomplishment,positive,NULL
1721645307,cd288710e9bf3387729f5dabac55861d,PennController,35,0,test,NULL,PennController,40,_Header_,Start,1721645061854,undefined,1392,accomplishment,positive,NULL
1721645307,cd288710e9bf3387729f5dabac55861d,PennController,35,0,test,NULL,PennController,40,_Header_,End,1721645062107,undefined,1392,accomplishment,positive,NULL
1721645307,cd288710e9bf3387729f5dabac55861d,PennController,35,0,test,NULL,Selector,unnamed-Selector,Selection,negative,1721645064006,undefined,1392,accomplishment,positive,negative;positive;neutral
1721645307,cd288710e9bf3387729f5dabac55861d,PennController,35,0,test,NULL,PennController,40,_Trial_,End,1721645064007,undefined,1392,accomplishment,positive,NULL
1721645307,cd288710e9bf3387729f5dabac55861d,PennController,44,0,test,NULL,PennController,49,_Trial_,Start,1721645064013,undefined,1194,free,positive,NULL
1721645307,cd288710e9bf3387729f5dabac55861d,PennController,44,0,test,NULL,PennController,49,_Header_,Start,1721645064013,undefined,1194,free,positive,NULL
1721645307,cd288710e9bf3387729f5dabac55861d,PennController,44,0,test,NULL,PennController,49,_Header_,End,1721645064266,undefined,1194,free,positive,NULL
1721645307,cd288710e9bf3387729f5dabac55861d,PennController,44,0,test,NULL,Selector,unnamed-Selector,Selection,negative,1721645065961,undefined,1194,free,positive,negative;positive;neutral
1721645307,cd288710e9bf3387729f5dabac55861d,PennController,44,0,test,NULL,PennController,49,_Trial_,End,1721645065963,undefined,1194,free,positive,NULL
1721645307,cd288710e9bf3387729f5dabac55861d,PennController,56,0,test,NULL,PennController,61,_Trial_,Start,1721645065970,undefined,1237,orgasm,positive,NULL
1721645307,cd288710e9bf3387729f5dabac55861d,PennController,56,0,test,NULL,PennController,61,_Header_,Start,1721645065970,undefined,1237,orgasm,positive,NULL
1721645307,cd288710e9bf3387729f5dabac55861d,PennController,56,0,test,NULL,PennController,61,_Header_,End,1721645066221,undefined,1237,orgasm,positive,NULL
1721645307,cd288710e9bf3387729f5dabac55861d,PennController,56,0,test,NULL,Selector,unnamed-Selector,Selection,negative,1721645067964,undefined,1237,orgasm,positive,negative;positive;neutral
1721645307,cd288710e9bf3387729f5dabac55861d,PennController,56,0,test,NULL,PennController,61,_Trial_,End,1721645067965,undefined,1237,orgasm,positive,NULL
1721645307,cd288710e9bf3387729f5dabac55861d,PennController,59,0,test,NULL,PennController,64,_Trial_,Start,1721645067971,undefined,1218,vacation,positive,NULL
1721645307,cd288710e9bf3387729f5dabac55861d,PennController,59,0,test,NULL,PennController,64,_Header_,Start,1721645067971,undefined,1218,vacation,positive,NULL
1721645307,cd288710e9bf3387729f5dabac55861d,PennController,59,0,test,NULL,PennController,64,_Header_,End,1721645068226,undefined,1218,vacation,positive,NULL
1721645307,cd288710e9bf3387729f5dabac55861d,PennController,59,0,test,NULL,Selector,unnamed-Selector,Selection,negative,1721645069947,undefined,1218,vacation,positive,negative;positive;neutral
1721645307,cd288710e9bf3387729f5dabac55861d,PennController,59,0,test,NULL,PennController,64,_Trial_,End,1721645069948,undefined,1218,vacation,positive,NULL
1721645307,cd288710e9bf3387729f5dabac55861d,PennController,94,0,test,NULL,PennController,99,_Trial_,Start,1721645069953,undefined,1109,latch,neutral,NULL
1721645307,cd288710e9bf3387729f5dabac55861d,PennController,94,0,test,NULL,PennController,99,_Header_,Start,1721645069953,undefined,1109,latch,neutral,NULL
1721645307,cd288710e9bf3387729f5dabac55861d,PennController,94,0,test,NULL,PennController,99,_Header_,End,1721645070206,undefined,1109,latch,neutral,NULL
1721645307,cd288710e9bf3387729f5dabac55861d,PennController,94,0,test,NULL,Selector,unnamed-Selector,Selection,positive,1721645071821,undefined,1109,latch,neutral,negative;positive;neutral
1721645307,cd288710e9bf3387729f5dabac55861d,PennController,94,0,test,NULL,PennController,99,_Trial_,End,1721645071823,undefined,1109,latch,neutral,NULL
1721645307,cd288710e9bf3387729f5dabac55861d,PennController,105,0,test,NULL,PennController,110,_Trial_,Start,1721645071828,undefined,914,principle,neutral,NULL
1721645307,cd288710e9bf3387729f5dabac55861d,PennController,105,0,test,NULL,PennController,110,_Header_,Start,1721645071828,undefined,914,principle,neutral,NULL
1721645307,cd288710e9bf3387729f5dabac55861d,PennController,105,0,test,NULL,PennController,110,_Header_,End,1721645072082,undefined,914,principle,neutral,NULL
1721645307,cd288710e9bf3387729f5dabac55861d,PennController,105,0,test,NULL,Selector,unnamed-Selector,Selection,positive,1721645073501,undefined,914,principle,neutral,negative;positive;neutral
1721645307,cd288710e9bf3387729f5dabac55861d,PennController,105,0,test,NULL,PennController,110,_Trial_,End,1721645073501,undefined,914,principle,neutral,NULL
1721645307,cd288710e9bf3387729f5dabac55861d,PennController,100,0,test,NULL,PennController,105,_Trial_,Start,1721645073507,undefined,1776,pace,neutral,NULL
1721645307,cd288710e9bf3387729f5dabac55861d,PennController,100,0,test,NULL,PennController,105,_Header_,Start,1721645073507,undefined,1776,pace,neutral,NULL
1721645307,cd288710e9bf3387729f5dabac55861d,PennController,100,0,test,NULL,PennController,105,_Header_,End,1721645073759,undefined,1776,pace,neutral,NULL
1721645307,cd288710e9bf3387729f5dabac55861d,PennController,100,0,test,NULL,Selector,unnamed-Selector,Selection,positive,1721645076037,undefined,1776,pace,neutral,negative;positive;neutral
1721645307,cd288710e9bf3387729f5dabac55861d,PennController,100,0,test,NULL,PennController,105,_Trial_,End,1721645076038,undefined,1776,pace,neutral,NULL
1721645307,cd288710e9bf3387729f5dabac55861d,PennController,61,0,test,NULL,PennController,66,_Trial_,Start,1721645076044,undefined,1216,analyst,neutral,NULL
1721645307,cd288710e9bf3387729f5dabac55861d,PennController,61,0,test,NULL,PennController,66,_Header_,Start,1721645076044,undefined,1216,analyst,neutral,NULL
1721645307,cd288710e9bf3387729f5dabac55861d,PennController,61,0,test,NULL,PennController,66,_Header_,End,1721645076294,undefined,1216,analyst,neutral,NULL
1721645307,cd288710e9bf3387729f5dabac55861d,PennController,61,0,test,NULL,Selector,unnamed-Selector,Selection,positive,1721645078013,undefined,1216,analyst,neutral,negative;positive;neutral
1721645307,cd288710e9bf3387729f5dabac55861d,PennController,61,0,test,NULL,PennController,66,_Trial_,End,1721645078014,undefined,1216,analyst,neutral,NULL
1721645307,cd288710e9bf3387729f5dabac55861d,PennController,21,0,test,NULL,PennController,26,_Trial_,Start,1721645078019,undefined,1506,mourning,negative,NULL
1721645307,cd288710e9bf3387729f5dabac55861d,PennController,21,0,test,NULL,PennController,26,_Header_,Start,1721645078019,undefined,1506,mourning,negative,NULL
1721645307,cd288710e9bf3387729f5dabac55861d,PennController,21,0,test,NULL,PennController,26,_Header_,End,1721645078270,undefined,1506,mourning,negative,NULL
1721645307,cd288710e9bf3387729f5dabac55861d,PennController,21,0,test,NULL,Selector,unnamed-Selector,Selection,neutral,1721645080281,undefined,1506,mourning,negative,negative;positive;neutral
1721645307,cd288710e9bf3387729f5dabac55861d,PennController,21,0,test,NULL,PennController,26,_Trial_,End,1721645080283,undefined,1506,mourning,negative,NULL
1721645307,cd288710e9bf3387729f5dabac55861d,PennController,78,0,test,NULL,PennController,83,_Trial_,Start,1721645080288,undefined,1401,customary,neutral,NULL
1721645307,cd288710e9bf3387729f5dabac55861d,PennController,78,0,test,NULL,PennController,83,_Header_,Start,1721645080288,undefined,1401,customary,neutral,NULL
1721645307,cd288710e9bf3387729f5dabac55861d,PennController,78,0,test,NULL,PennController,83,_Header_,End,1721645080540,undefined,1401,customary,neutral,NULL
1721645307,cd288710e9bf3387729f5dabac55861d,PennController,78,0,test,NULL,Selector,unnamed-Selector,Selection,positive,1721645082448,undefined,1401,customary,neutral,negative;positive;neutral
1721645307,cd288710e9bf3387729f5dabac55861d,PennController,78,0,test,NULL,PennController,83,_Trial_,End,1721645082449,undefined,1401,customary,neutral,NULL
1721645307,cd288710e9bf3387729f5dabac55861d,PennController,39,0,test,NULL,PennController,44,_Trial_,Start,1721645082455,undefined,936,courageous,positive,NULL
1721645307,cd288710e9bf3387729f5dabac55861d,PennController,39,0,test,NULL,PennController,44,_Header_,Start,1721645082455,undefined,936,courageous,positive,NULL
1721645307,cd288710e9bf3387729f5dabac55861d,PennController,39,0,test,NULL,PennController,44,_Header_,End,1721645082709,undefined,936,courageous,positive,NULL
1721645307,cd288710e9bf3387729f5dabac55861d,PennController,39,0,test,NULL,Selector,unnamed-Selector,Selection,negative,1721645084151,undefined,936,courageous,positive,negative;positive;neutral
1721645307,cd288710e9bf3387729f5dabac55861d,PennController,39,0,test,NULL,PennController,44,_Trial_,End,1721645084152,undefined,936,courageous,positive,NULL
1721645307,cd288710e9bf3387729f5dabac55861d,PennController,101,0,test,NULL,PennController,106,_Trial_,Start,1721645084157,undefined,1379,piety,neutral,NULL
1721645307,cd288710e9bf3387729f5dabac55861d,PennController,101,0,test,NULL,PennController,106,_Header_,Start,1721645084157,undefined,1379,piety,neutral,NULL
1721645307,cd288710e9bf3387729f5dabac55861d,PennController,101,0,test,NULL,PennController,106,_Header_,End,1721645084407,undefined,1379,piety,neutral,NULL
1721645307,cd288710e9bf3387729f5dabac55861d,PennController,101,0,test,NULL,Selector,unnamed-Selector,Selection,positive,1721645086292,undefined,1379,piety,neutral,negative;positive;neutral
1721645307,cd288710e9bf3387729f5dabac55861d,PennController,101,0,test,NULL,PennController,106,_Trial_,End,1721645086293,undefined,1379,piety,neutral,NULL
1721645307,cd288710e9bf3387729f5dabac55861d,PennController,80,0,test,NULL,PennController,85,_Trial_,Start,1721645086297,undefined,1106,dib,neutral,NULL
1721645307,cd288710e9bf3387729f5dabac55861d,PennController,80,0,test,NULL,PennController,85,_Header_,Start,1721645086297,undefined,1106,dib,neutral,NULL
1721645307,cd288710e9bf3387729f5dabac55861d,PennController,80,0,test,NULL,PennController,85,_Header_,End,1721645086549,undefined,1106,dib,neutral,NULL
1721645307,cd288710e9bf3387729f5dabac55861d,PennController,80,0,test,NULL,Selector,unnamed-Selector,Selection,positive,1721645088163,undefined,1106,dib,neutral,negative;positive;neutral
1721645307,cd288710e9bf3387729f5dabac55861d,PennController,80,0,test,NULL,PennController,85,_Trial_,End,1721645088164,undefined,1106,dib,neutral,NULL
1721645307,cd288710e9bf3387729f5dabac55861d,PennController,123,0,test,NULL,PennController,128,_Trial_,Start,1721645088170,undefined,1257,vowel,neutral,NULL
1721645307,cd288710e9bf3387729f5dabac55861d,PennController,123,0,test,NULL,PennController,128,_Header_,Start,1721645088170,undefined,1257,vowel,neutral,NULL
1721645307,cd288710e9bf3387729f5dabac55861d,PennController,123,0,test,NULL,PennController,128,_Header_,End,1721645088420,undefined,1257,vowel,neutral,NULL
1721645307,cd288710e9bf3387729f5dabac55861d,PennController,123,0,test,NULL,Selector,unnamed-Selector,Selection,positive,1721645090182,undefined,1257,vowel,neutral,negative;positive;neutral
1721645307,cd288710e9bf3387729f5dabac55861d,PennController,123,0,test,NULL,PennController,128,_Trial_,End,1721645090183,undefined,1257,vowel,neutral,NULL
1721645307,cd288710e9bf3387729f5dabac55861d,PennController,13,0,test,NULL,PennController,18,_Trial_,Start,1721645090188,undefined,1041,herpes,negative,NULL
1721645307,cd288710e9bf3387729f5dabac55861d,PennController,13,0,test,NULL,PennController,18,_Header_,Start,1721645090188,undefined,1041,herpes,negative,NULL
1721645307,cd288710e9bf3387729f5dabac55861d,PennController,13,0,test,NULL,PennController,18,_Header_,End,1721645090438,undefined,1041,herpes,negative,NULL
1721645307,cd288710e9bf3387729f5dabac55861d,PennController,13,0,test,NULL,Selector,unnamed-Selector,Selection,neutral,1721645091986,undefined,1041,herpes,negative,negative;positive;neutral
1721645307,cd288710e9bf3387729f5dabac55861d,PennController,13,0,test,NULL,PennController,18,_Trial_,End,1721645091987,undefined,1041,herpes,negative,NULL
1721645307,cd288710e9bf3387729f5dabac55861d,PennController,84,0,test,NULL,PennController,89,_Trial_,Start,1721645091993,undefined,2544,floss,neutral,NULL
1721645307,cd288710e9bf3387729f5dabac55861d,PennController,84,0,test,NULL,PennController,89,_Header_,Start,1721645091993,undefined,2544,floss,neutral,NULL
1721645307,cd288710e9bf3387729f5dabac55861d,PennController,84,0,test,NULL,PennController,89,_Header_,End,1721645092243,undefined,2544,floss,neutral,NULL
1721645307,cd288710e9bf3387729f5dabac55861d,PennController,84,0,test,NULL,Selector,unnamed-Selector,Selection,positive,1721645095290,undefined,2544,floss,neutral,negative;positive;neutral
1721645307,cd288710e9bf3387729f5dabac55861d,PennController,84,0,test,NULL,PennController,89,_Trial_,End,1721645095291,undefined,2544,floss,neutral,NULL
1721645307,cd288710e9bf3387729f5dabac55861d,PennController,66,0,test,NULL,PennController,71,_Trial_,Start,1721645095296,undefined,1754,boar,neutral,NULL
1721645307,cd288710e9bf3387729f5dabac55861d,PennController,66,0,test,NULL,PennController,71,_Header_,Start,1721645095296,undefined,1754,boar,neutral,NULL
1721645307,cd288710e9bf3387729f5dabac55861d,PennController,66,0,test,NULL,PennController,71,_Header_,End,1721645095549,undefined,1754,boar,neutral,NULL
1721645307,cd288710e9bf3387729f5dabac55861d,PennController,66,0,test,NULL,Selector,unnamed-Selector,Selection,neutral,1721645097809,undefined,1754,boar,neutral,negative;positive;neutral
1721645307,cd288710e9bf3387729f5dabac55861d,PennController,66,0,test,NULL,PennController,71,_Trial_,End,1721645097810,undefined,1754,boar,neutral,NULL
1721645307,cd288710e9bf3387729f5dabac55861d,PennController,9,0,test,NULL,PennController,14,_Trial_,Start,1721645097816,undefined,1551,drunk driving,negative,NULL
1721645307,cd288710e9bf3387729f5dabac55861d,PennController,9,0,test,NULL,PennController,14,_Header_,Start,1721645097816,undefined,1551,drunk driving,negative,NULL
1721645307,cd288710e9bf3387729f5dabac55861d,PennController,9,0,test,NULL,PennController,14,_Header_,End,1721645098071,undefined,1551,drunk driving,negative,NULL
1721645307,cd288710e9bf3387729f5dabac55861d,PennController,9,0,test,NULL,Selector,unnamed-Selector,Selection,neutral,1721645100126,undefined,1551,drunk driving,negative,negative;positive;neutral
1721645307,cd288710e9bf3387729f5dabac55861d,PennController,9,0,test,NULL,PennController,14,_Trial_,End,1721645100127,undefined,1551,drunk driving,negative,NULL
1721645307,cd288710e9bf3387729f5dabac55861d,PennController,32,0,test,NULL,PennController,37,_Trial_,Start,1721645100133,undefined,2075,torture,negative,NULL
1721645307,cd288710e9bf3387729f5dabac55861d,PennController,32,0,test,NULL,PennController,37,_Header_,Start,1721645100133,undefined,2075,torture,negative,NULL
1721645307,cd288710e9bf3387729f5dabac55861d,PennController,32,0,test,NULL,PennController,37,_Header_,End,1721645100386,undefined,2075,torture,negative,NULL
1721645307,cd288710e9bf3387729f5dabac55861d,PennController,32,0,test,NULL,Selector,unnamed-Selector,Selection,neutral,1721645102964,undefined,2075,torture,negative,negative;positive;neutral
1721645307,cd288710e9bf3387729f5dabac55861d,PennController,32,0,test,NULL,PennController,37,_Trial_,End,1721645102965,undefined,2075,torture,negative,NULL
1721645307,cd288710e9bf3387729f5dabac55861d,PennController,36,0,test,NULL,PennController,41,_Trial_,Start,1721645102971,undefined,5438,bonus,positive,NULL
1721645307,cd288710e9bf3387729f5dabac55861d,PennController,36,0,test,NULL,PennController,41,_Header_,Start,1721645102971,undefined,5438,bonus,positive,NULL
1721645307,cd288710e9bf3387729f5dabac55861d,PennController,36,0,test,NULL,PennController,41,_Header_,End,1721645103225,undefined,5438,bonus,positive,NULL
1721645307,cd288710e9bf3387729f5dabac55861d,PennController,36,0,test,NULL,Selector,unnamed-Selector,Selection,negative,1721645109168,undefined,5438,bonus,positive,negative;positive;neutral
1721645307,cd288710e9bf3387729f5dabac55861d,PennController,36,0,test,NULL,PennController,41,_Trial_,End,1721645109169,undefined,5438,bonus,positive,NULL
1721645307,cd288710e9bf3387729f5dabac55861d,PennController,37,0,test,NULL,PennController,42,_Trial_,Start,1721645109173,undefined,5465,christmas,positive,NULL
1721645307,cd288710e9bf3387729f5dabac55861d,PennController,37,0,test,NULL,PennController,42,_Header_,Start,1721645109173,undefined,5465,christmas,positive,NULL
1721645307,cd288710e9bf3387729f5dabac55861d,PennController,37,0,test,NULL,PennController,42,_Header_,End,1721645109426,undefined,5465,christmas,positive,NULL
1721645307,cd288710e9bf3387729f5dabac55861d,PennController,37,0,test,NULL,Selector,unnamed-Selector,Selection,negative,1721645115396,undefined,5465,christmas,positive,negative;positive;neutral
1721645307,cd288710e9bf3387729f5dabac55861d,PennController,37,0,test,NULL,PennController,42,_Trial_,End,1721645115397,undefined,5465,christmas,positive,NULL
1721645307,cd288710e9bf3387729f5dabac55861d,PennController,83,0,test,NULL,PennController,88,_Trial_,Start,1721645115402,undefined,1151,fir,neutral,NULL
1721645307,cd288710e9bf3387729f5dabac55861d,PennController,83,0,test,NULL,PennController,88,_Header_,Start,1721645115402,undefined,1151,fir,neutral,NULL
1721645307,cd288710e9bf3387729f5dabac55861d,PennController,83,0,test,NULL,PennController,88,_Header_,End,1721645115652,undefined,1151,fir,neutral,NULL
1721645307,cd288710e9bf3387729f5dabac55861d,PennController,83,0,test,NULL,Selector,unnamed-Selector,Selection,positive,1721645117304,undefined,1151,fir,neutral,negative;positive;neutral
1721645307,cd288710e9bf3387729f5dabac55861d,PennController,83,0,test,NULL,PennController,88,_Trial_,End,1721645117309,undefined,1151,fir,neutral,NULL
1721645307,cd288710e9bf3387729f5dabac55861d,PennController,45,0,test,NULL,PennController,50,_Trial_,Start,1721645117319,undefined,1089,fun,positive,NULL
1721645307,cd288710e9bf3387729f5dabac55861d,PennController,45,0,test,NULL,PennController,50,_Header_,Start,1721645117319,undefined,1089,fun,positive,NULL
1721645307,cd288710e9bf3387729f5dabac55861d,PennController,45,0,test,NULL,PennController,50,_Header_,End,1721645117572,undefined,1089,fun,positive,NULL
1721645307,cd288710e9bf3387729f5dabac55861d,PennController,45,0,test,NULL,Selector,unnamed-Selector,Selection,negative,1721645119166,undefined,1089,fun,positive,negative;positive;neutral
1721645307,cd288710e9bf3387729f5dabac55861d,PennController,45,0,test,NULL,PennController,50,_Trial_,End,1721645119168,undefined,1089,fun,positive,NULL
1721645307,cd288710e9bf3387729f5dabac55861d,PennController,63,0,test,NULL,PennController,68,_Trial_,Start,1721645119177,undefined,1375,assemblyman,neutral,NULL
1721645307,cd288710e9bf3387729f5dabac55861d,PennController,63,0,test,NULL,PennController,68,_Header_,Start,1721645119177,undefined,1375,assemblyman,neutral,NULL
1721645307,cd288710e9bf3387729f5dabac55861d,PennController,63,0,test,NULL,PennController,68,_Header_,End,1721645119427,undefined,1375,assemblyman,neutral,NULL
1721645307,cd288710e9bf3387729f5dabac55861d,PennController,63,0,test,NULL,Selector,unnamed-Selector,Selection,positive,1721645121305,undefined,1375,assemblyman,neutral,negative;positive;neutral
1721645307,cd288710e9bf3387729f5dabac55861d,PennController,63,0,test,NULL,PennController,68,_Trial_,End,1721645121307,undefined,1375,assemblyman,neutral,NULL
1721645307,cd288710e9bf3387729f5dabac55861d,PennController,10,0,test,NULL,PennController,15,_Trial_,Start,1721645121313,undefined,1035,genocide,negative,NULL
1721645307,cd288710e9bf3387729f5dabac55861d,PennController,10,0,test,NULL,PennController,15,_Header_,Start,1721645121313,undefined,1035,genocide,negative,NULL
1721645307,cd288710e9bf3387729f5dabac55861d,PennController,10,0,test,NULL,PennController,15,_Header_,End,1721645121566,undefined,1035,genocide,negative,NULL
1721645307,cd288710e9bf3387729f5dabac55861d,PennController,10,0,test,NULL,Selector,unnamed-Selector,Selection,neutral,1721645123106,undefined,1035,genocide,negative,negative;positive;neutral
1721645307,cd288710e9bf3387729f5dabac55861d,PennController,10,0,test,NULL,PennController,15,_Trial_,End,1721645123108,undefined,1035,genocide,negative,NULL
1721645307,cd288710e9bf3387729f5dabac55861d,PennController,69,0,test,NULL,PennController,74,_Trial_,Start,1721645123113,undefined,2282,cap,neutral,NULL
1721645307,cd288710e9bf3387729f5dabac55861d,PennController,69,0,test,NULL,PennController,74,_Header_,Start,1721645123113,undefined,2282,cap,neutral,NULL
1721645307,cd288710e9bf3387729f5dabac55861d,PennController,69,0,test,NULL,PennController,74,_Header_,End,1721645123365,undefined,2282,cap,neutral,NULL
1721645307,cd288710e9bf3387729f5dabac55861d,PennController,69,0,test,NULL,Selector,unnamed-Selector,Selection,positive,1721645126153,undefined,2282,cap,neutral,negative;positive;neutral
1721645307,cd288710e9bf3387729f5dabac55861d,PennController,69,0,test,NULL,PennController,74,_Trial_,End,1721645126154,undefined,2282,cap,neutral,NULL
1721645307,cd288710e9bf3387729f5dabac55861d,PennController,30,0,test,NULL,PennController,35,_Trial_,Start,1721645126160,undefined,1138,suicide,negative,NULL
1721645307,cd288710e9bf3387729f5dabac55861d,PennController,30,0,test,NULL,PennController,35,_Header_,Start,1721645126160,undefined,1138,suicide,negative,NULL
1721645307,cd288710e9bf3387729f5dabac55861d,PennController,30,0,test,NULL,PennController,35,_Header_,End,1721645126414,undefined,1138,suicide,negative,NULL
1721645307,cd288710e9bf3387729f5dabac55861d,PennController,30,0,test,NULL,Selector,unnamed-Selector,Selection,neutral,1721645128060,undefined,1138,suicide,negative,negative;positive;neutral
1721645307,cd288710e9bf3387729f5dabac55861d,PennController,30,0,test,NULL,PennController,35,_Trial_,End,1721645128061,undefined,1138,suicide,negative,NULL
1721645307,cd288710e9bf3387729f5dabac55861d,PennController,88,0,test,NULL,PennController,93,_Trial_,Start,1721645128067,undefined,1071,husk,neutral,NULL
1721645307,cd288710e9bf3387729f5dabac55861d,PennController,88,0,test,NULL,PennController,93,_Header_,Start,1721645128067,undefined,1071,husk,neutral,NULL
1721645307,cd288710e9bf3387729f5dabac55861d,PennController,88,0,test,NULL,PennController,93,_Header_,End,1721645128320,undefined,1071,husk,neutral,NULL
1721645307,cd288710e9bf3387729f5dabac55861d,PennController,88,0,test,NULL,Selector,unnamed-Selector,Selection,positive,1721645129897,undefined,1071,husk,neutral,negative;positive;neutral
1721645307,cd288710e9bf3387729f5dabac55861d,PennController,88,0,test,NULL,PennController,93,_Trial_,End,1721645129898,undefined,1071,husk,neutral,NULL
1721645307,cd288710e9bf3387729f5dabac55861d,PennController,70,0,test,NULL,PennController,75,_Trial_,Start,1721645129904,undefined,871,chalk,neutral,NULL
1721645307,cd288710e9bf3387729f5dabac55861d,PennController,70,0,test,NULL,PennController,75,_Header_,Start,1721645129904,undefined,871,chalk,neutral,NULL
1721645307,cd288710e9bf3387729f5dabac55861d,PennController,70,0,test,NULL,PennController,75,_Header_,End,1721645130157,undefined,871,chalk,neutral,NULL
1721645307,cd288710e9bf3387729f5dabac55861d,PennController,70,0,test,NULL,Selector,unnamed-Selector,Selection,positive,1721645131532,undefined,871,chalk,neutral,negative;positive;neutral
1721645307,cd288710e9bf3387729f5dabac55861d,PennController,70,0,test,NULL,PennController,75,_Trial_,End,1721645131533,undefined,871,chalk,neutral,NULL
1721645307,cd288710e9bf3387729f5dabac55861d,PennController,38,0,test,NULL,PennController,43,_Trial_,Start,1721645131538,undefined,907,comedy,positive,NULL
1721645307,cd288710e9bf3387729f5dabac55861d,PennController,38,0,test,NULL,PennController,43,_Header_,Start,1721645131538,undefined,907,comedy,positive,NULL
1721645307,cd288710e9bf3387729f5dabac55861d,PennController,38,0,test,NULL,PennController,43,_Header_,End,1721645131788,undefined,907,comedy,positive,NULL
1721645307,cd288710e9bf3387729f5dabac55861d,PennController,38,0,test,NULL,Selector,unnamed-Selector,Selection,negative,1721645133201,undefined,907,comedy,positive,negative;positive;neutral
1721645307,cd288710e9bf3387729f5dabac55861d,PennController,38,0,test,NULL,PennController,43,_Trial_,End,1721645133203,undefined,907,comedy,positive,NULL
1721645307,cd288710e9bf3387729f5dabac55861d,PennController,50,0,test,NULL,PennController,55,_Trial_,Start,1721645133208,undefined,762,joy,positive,NULL
1721645307,cd288710e9bf3387729f5dabac55861d,PennController,50,0,test,NULL,PennController,55,_Header_,Start,1721645133208,undefined,762,joy,positive,NULL
1721645307,cd288710e9bf3387729f5dabac55861d,PennController,50,0,test,NULL,PennController,55,_Header_,End,1721645133462,undefined,762,joy,positive,NULL
1721645307,cd288710e9bf3387729f5dabac55861d,PennController,50,0,test,NULL,Selector,unnamed-Selector,Selection,negative,1721645134728,undefined,762,joy,positive,negative;positive;neutral
1721645307,cd288710e9bf3387729f5dabac55861d,PennController,50,0,test,NULL,PennController,55,_Trial_,End,1721645134729,undefined,762,joy,positive,NULL
1721645307,cd288710e9bf3387729f5dabac55861d,PennController,85,0,test,NULL,PennController,90,_Trial_,Start,1721645134734,undefined,1002,forty,neutral,NULL
1721645307,cd288710e9bf3387729f5dabac55861d,PennController,85,0,test,NULL,PennController,90,_Header_,Start,1721645134734,undefined,1002,forty,neutral,NULL
1721645307,cd288710e9bf3387729f5dabac55861d,PennController,85,0,test,NULL,PennController,90,_Header_,End,1721645134986,undefined,1002,forty,neutral,NULL
1721645307,cd288710e9bf3387729f5dabac55861d,PennController,85,0,test,NULL,Selector,unnamed-Selector,Selection,positive,1721645136494,undefined,1002,forty,neutral,negative;positive;neutral
1721645307,cd288710e9bf3387729f5dabac55861d,PennController,85,0,test,NULL,PennController,90,_Trial_,End,1721645136495,undefined,1002,forty,neutral,NULL
1721645307,cd288710e9bf3387729f5dabac55861d,PennController,103,0,test,NULL,PennController,108,_Trial_,Start,1721645136501,undefined,998,porridge,neutral,NULL
1721645307,cd288710e9bf3387729f5dabac55861d,PennController,103,0,test,NULL,PennController,108,_Header_,Start,1721645136501,undefined,998,porridge,neutral,NULL
1721645307,cd288710e9bf3387729f5dabac55861d,PennController,103,0,test,NULL,PennController,108,_Header_,End,1721645136753,undefined,998,porridge,neutral,NULL
1721645307,cd288710e9bf3387729f5dabac55861d,PennController,103,0,test,NULL,Selector,unnamed-Selector,Selection,positive,1721645138258,undefined,998,porridge,neutral,negative;positive;neutral
1721645307,cd288710e9bf3387729f5dabac55861d,PennController,103,0,test,NULL,PennController,108,_Trial_,End,1721645138260,undefined,998,porridge,neutral,NULL
1721645307,cd288710e9bf3387729f5dabac55861d,PennController,116,0,test,NULL,PennController,121,_Trial_,Start,1721645138265,undefined,940,sub,neutral,NULL
1721645307,cd288710e9bf3387729f5dabac55861d,PennController,116,0,test,NULL,PennController,121,_Header_,Start,1721645138265,undefined,940,sub,neutral,NULL
1721645307,cd288710e9bf3387729f5dabac55861d,PennController,116,0,test,NULL,PennController,121,_Header_,End,1721645138516,undefined,940,sub,neutral,NULL
1721645307,cd288710e9bf3387729f5dabac55861d,PennController,116,0,test,NULL,Selector,unnamed-Selector,Selection,positive,1721645139962,undefined,940,sub,neutral,negative;positive;neutral
1721645307,cd288710e9bf3387729f5dabac55861d,PennController,116,0,test,NULL,PennController,121,_Trial_,End,1721645139963,undefined,940,sub,neutral,NULL
1721645307,cd288710e9bf3387729f5dabac55861d,PennController,52,0,test,NULL,PennController,57,_Trial_,Start,1721645139965,undefined,868,laughter,positive,NULL
1721645307,cd288710e9bf3387729f5dabac55861d,PennController,52,0,test,NULL,PennController,57,_Header_,Start,1721645139965,undefined,868,laughter,positive,NULL
1721645307,cd288710e9bf3387729f5dabac55861d,PennController,52,0,test,NULL,PennController,57,_Header_,End,1721645140219,undefined,868,laughter,positive,NULL
1721645307,cd288710e9bf3387729f5dabac55861d,PennController,52,0,test,NULL,Selector,unnamed-Selector,Selection,negative,1721645141595,undefined,868,laughter,positive,negative;positive;neutral
1721645307,cd288710e9bf3387729f5dabac55861d,PennController,52,0,test,NULL,PennController,57,_Trial_,End,1721645141596,undefined,868,laughter,positive,NULL
1721645307,cd288710e9bf3387729f5dabac55861d,PennController,19,0,test,NULL,PennController,24,_Trial_,Start,1721645141601,undefined,1029,molester,negative,NULL
1721645307,cd288710e9bf3387729f5dabac55861d,PennController,19,0,test,NULL,PennController,24,_Header_,Start,1721645141601,undefined,1029,molester,negative,NULL
1721645307,cd288710e9bf3387729f5dabac55861d,PennController,19,0,test,NULL,PennController,24,_Header_,End,1721645141854,undefined,1029,molester,negative,NULL
1721645307,cd288710e9bf3387729f5dabac55861d,PennController,19,0,test,NULL,Selector,unnamed-Selector,Selection,neutral,1721645143387,undefined,1029,molester,negative,negative;positive;neutral
1721645307,cd288710e9bf3387729f5dabac55861d,PennController,19,0,test,NULL,PennController,24,_Trial_,End,1721645143388,undefined,1029,molester,negative,NULL
1721645307,cd288710e9bf3387729f5dabac55861d,PennController,92,0,test,NULL,PennController,97,_Trial_,Start,1721645143392,undefined,1563,kiosk,neutral,NULL
1721645307,cd288710e9bf3387729f5dabac55861d,PennController,92,0,test,NULL,PennController,97,_Header_,Start,1721645143392,undefined,1563,kiosk,neutral,NULL
1721645307,cd288710e9bf3387729f5dabac55861d,PennController,92,0,test,NULL,PennController,97,_Header_,End,1721645143647,undefined,1563,kiosk,neutral,NULL
1721645307,cd288710e9bf3387729f5dabac55861d,PennController,92,0,test,NULL,Selector,unnamed-Selector,Selection,positive,1721645145714,undefined,1563,kiosk,neutral,negative;positive;neutral
1721645307,cd288710e9bf3387729f5dabac55861d,PennController,92,0,test,NULL,PennController,97,_Trial_,End,1721645145715,undefined,1563,kiosk,neutral,NULL
1721645307,cd288710e9bf3387729f5dabac55861d,PennController,58,0,test,NULL,PennController,63,_Trial_,Start,1721645145720,undefined,2251,sunshine,positive,NULL
1721645307,cd288710e9bf3387729f5dabac55861d,PennController,58,0,test,NULL,PennController,63,_Header_,Start,1721645145720,undefined,2251,sunshine,positive,NULL
1721645307,cd288710e9bf3387729f5dabac55861d,PennController,58,0,test,NULL,PennController,63,_Header_,End,1721645145974,undefined,2251,sunshine,positive,NULL
1721645307,cd288710e9bf3387729f5dabac55861d,PennController,58,0,test,NULL,Selector,unnamed-Selector,Selection,negative,1721645148727,undefined,2251,sunshine,positive,negative;positive;neutral
1721645307,cd288710e9bf3387729f5dabac55861d,PennController,58,0,test,NULL,PennController,63,_Trial_,End,1721645148729,undefined,2251,sunshine,positive,NULL
1721645307,cd288710e9bf3387729f5dabac55861d,PennController,46,0,test,NULL,PennController,51,_Trial_,Start,1721645148734,undefined,1076,happiness,positive,NULL
1721645307,cd288710e9bf3387729f5dabac55861d,PennController,46,0,test,NULL,PennController,51,_Header_,Start,1721645148734,undefined,1076,happiness,positive,NULL
1721645307,cd288710e9bf3387729f5dabac55861d,PennController,46,0,test,NULL,PennController,51,_Header_,End,1721645148986,undefined,1076,happiness,positive,NULL
1721645307,cd288710e9bf3387729f5dabac55861d,PennController,46,0,test,NULL,Selector,unnamed-Selector,Selection,negative,1721645150566,undefined,1076,happiness,positive,negative;positive;neutral
1721645307,cd288710e9bf3387729f5dabac55861d,PennController,46,0,test,NULL,PennController,51,_Trial_,End,1721645150567,undefined,1076,happiness,positive,NULL
1721645307,cd288710e9bf3387729f5dabac55861d,PennController,26,0,test,NULL,PennController,31,_Trial_,Start,1721645150573,undefined,916,racism,negative,NULL
1721645307,cd288710e9bf3387729f5dabac55861d,PennController,26,0,test,NULL,PennController,31,_Header_,Start,1721645150573,undefined,916,racism,negative,NULL
1721645307,cd288710e9bf3387729f5dabac55861d,PennController,26,0,test,NULL,PennController,31,_Header_,End,1721645150824,undefined,916,racism,negative,NULL
1721645307,cd288710e9bf3387729f5dabac55861d,PennController,26,0,test,NULL,Selector,unnamed-Selector,Selection,neutral,1721645152243,undefined,916,racism,negative,negative;positive;neutral
1721645307,cd288710e9bf3387729f5dabac55861d,PennController,26,0,test,NULL,PennController,31,_Trial_,End,1721645152244,undefined,916,racism,negative,NULL
1721645307,cd288710e9bf3387729f5dabac55861d,PennController,77,0,test,NULL,PennController,82,_Trial_,Start,1721645152248,undefined,1663,corny,neutral,NULL
1721645307,cd288710e9bf3387729f5dabac55861d,PennController,77,0,test,NULL,PennController,82,_Header_,Start,1721645152248,undefined,1663,corny,neutral,NULL
1721645307,cd288710e9bf3387729f5dabac55861d,PennController,77,0,test,NULL,PennController,82,_Header_,End,1721645152498,undefined,1663,corny,neutral,NULL
1721645307,cd288710e9bf3387729f5dabac55861d,PennController,77,0,test,NULL,Selector,unnamed-Selector,Selection,neutral,1721645154667,undefined,1663,corny,neutral,negative;positive;neutral
1721645307,cd288710e9bf3387729f5dabac55861d,PennController,77,0,test,NULL,PennController,82,_Trial_,End,1721645154668,undefined,1663,corny,neutral,NULL
1721645307,cd288710e9bf3387729f5dabac55861d,PennController,23,0,test,NULL,PennController,28,_Trial_,Start,1721645154673,undefined,1524,nausea,negative,NULL
1721645307,cd288710e9bf3387729f5dabac55861d,PennController,23,0,test,NULL,PennController,28,_Header_,Start,1721645154673,undefined,1524,nausea,negative,NULL
1721645307,cd288710e9bf3387729f5dabac55861d,PennController,23,0,test,NULL,PennController,28,_Header_,End,1721645154927,undefined,1524,nausea,negative,NULL
1721645307,cd288710e9bf3387729f5dabac55861d,PennController,23,0,test,NULL,Selector,unnamed-Selector,Selection,positive,1721645156957,undefined,1524,nausea,negative,negative;positive;neutral
1721645307,cd288710e9bf3387729f5dabac55861d,PennController,23,0,test,NULL,PennController,28,_Trial_,End,1721645156958,undefined,1524,nausea,negative,NULL
1721645307,cd288710e9bf3387729f5dabac55861d,PennController,62,0,test,NULL,PennController,67,_Trial_,Start,1721645156963,undefined,842,apartments,neutral,NULL
1721645307,cd288710e9bf3387729f5dabac55861d,PennController,62,0,test,NULL,PennController,67,_Header_,Start,1721645156963,undefined,842,apartments,neutral,NULL
1721645307,cd288710e9bf3387729f5dabac55861d,PennController,62,0,test,NULL,PennController,67,_Header_,End,1721645157214,undefined,842,apartments,neutral,NULL
1721645307,cd288710e9bf3387729f5dabac55861d,PennController,62,0,test,NULL,Selector,unnamed-Selector,Selection,positive,1721645158562,undefined,842,apartments,neutral,negative;positive;neutral
1721645307,cd288710e9bf3387729f5dabac55861d,PennController,62,0,test,NULL,PennController,67,_Trial_,End,1721645158564,undefined,842,apartments,neutral,NULL
1721645307,cd288710e9bf3387729f5dabac55861d,PennController,55,0,test,NULL,PennController,60,_Trial_,Start,1721645158568,undefined,1072,magical,positive,NULL
1721645307,cd288710e9bf3387729f5dabac55861d,PennController,55,0,test,NULL,PennController,60,_Header_,Start,1721645158568,undefined,1072,magical,positive,NULL
1721645307,cd288710e9bf3387729f5dabac55861d,PennController,55,0,test,NULL,PennController,60,_Header_,End,1721645158822,undefined,1072,magical,positive,NULL
1721645307,cd288710e9bf3387729f5dabac55861d,PennController,55,0,test,NULL,Selector,unnamed-Selector,Selection,negative,1721645160398,undefined,1072,magical,positive,negative;positive;neutral
1721645307,cd288710e9bf3387729f5dabac55861d,PennController,55,0,test,NULL,PennController,60,_Trial_,End,1721645160399,undefined,1072,magical,positive,NULL
1721645307,cd288710e9bf3387729f5dabac55861d,PennController,125,0,test,NULL,PennController,130,_Trial_,Start,1721645160404,undefined,1751,yen,neutral,NULL
1721645307,cd288710e9bf3387729f5dabac55861d,PennController,125,0,test,NULL,PennController,130,_Header_,Start,1721645160404,undefined,1751,yen,neutral,NULL
1721645307,cd288710e9bf3387729f5dabac55861d,PennController,125,0,test,NULL,PennController,130,_Header_,End,1721645160655,undefined,1751,yen,neutral,NULL
1721645307,cd288710e9bf3387729f5dabac55861d,PennController,125,0,test,NULL,Selector,unnamed-Selector,Selection,negative,1721645162909,undefined,1751,yen,neutral,negative;positive;neutral
1721645307,cd288710e9bf3387729f5dabac55861d,PennController,125,0,test,NULL,PennController,130,_Trial_,End,1721645162910,undefined,1751,yen,neutral,NULL
1721645307,cd288710e9bf3387729f5dabac55861d,PennController,99,0,test,NULL,PennController,104,_Trial_,Start,1721645162915,undefined,1550,ought,neutral,NULL
1721645307,cd288710e9bf3387729f5dabac55861d,PennController,99,0,test,NULL,PennController,104,_Header_,Start,1721645162915,undefined,1550,ought,neutral,NULL
1721645307,cd288710e9bf3387729f5dabac55861d,PennController,99,0,test,NULL,PennController,104,_Header_,End,1721645163166,undefined,1550,ought,neutral,NULL
1721645307,cd288710e9bf3387729f5dabac55861d,PennController,99,0,test,NULL,Selector,unnamed-Selector,Selection,positive,1721645165222,undefined,1550,ought,neutral,negative;positive;neutral
1721645307,cd288710e9bf3387729f5dabac55861d,PennController,99,0,test,NULL,PennController,104,_Trial_,End,1721645165223,undefined,1550,ought,neutral,NULL
1721645307,cd288710e9bf3387729f5dabac55861d,PennController,97,0,test,NULL,PennController,102,_Trial_,Start,1721645165228,undefined,1285,nincompoop,neutral,NULL
1721645307,cd288710e9bf3387729f5dabac55861d,PennController,97,0,test,NULL,PennController,102,_Header_,Start,1721645165228,undefined,1285,nincompoop,neutral,NULL
1721645307,cd288710e9bf3387729f5dabac55861d,PennController,97,0,test,NULL,PennController,102,_Header_,End,1721645165479,undefined,1285,nincompoop,neutral,NULL
1721645307,cd288710e9bf3387729f5dabac55861d,PennController,97,0,test,NULL,Selector,unnamed-Selector,Selection,neutral,1721645167266,undefined,1285,nincompoop,neutral,negative;positive;neutral
1721645307,cd288710e9bf3387729f5dabac55861d,PennController,97,0,test,NULL,PennController,102,_Trial_,End,1721645167267,undefined,1285,nincompoop,neutral,NULL
1721645307,cd288710e9bf3387729f5dabac55861d,PennController,112,0,test,NULL,PennController,117,_Trial_,Start,1721645167272,undefined,1464,sill,neutral,NULL
1721645307,cd288710e9bf3387729f5dabac55861d,PennController,112,0,test,NULL,PennController,117,_Header_,Start,1721645167272,undefined,1464,sill,neutral,NULL
1721645307,cd288710e9bf3387729f5dabac55861d,PennController,112,0,test,NULL,PennController,117,_Header_,End,1721645167525,undefined,1464,sill,neutral,NULL
1721645307,cd288710e9bf3387729f5dabac55861d,PennController,112,0,test,NULL,Selector,unnamed-Selector,Selection,positive,1721645169495,undefined,1464,sill,neutral,negative;positive;neutral
1721645307,cd288710e9bf3387729f5dabac55861d,PennController,112,0,test,NULL,PennController,117,_Trial_,End,1721645169496,undefined,1464,sill,neutral,NULL
1721645307,cd288710e9bf3387729f5dabac55861d,PennController,48,0,test,NULL,PennController,53,_Trial_,Start,1721645169501,undefined,1091,honest,positive,NULL
1721645307,cd288710e9bf3387729f5dabac55861d,PennController,48,0,test,NULL,PennController,53,_Header_,Start,1721645169501,undefined,1091,honest,positive,NULL
1721645307,cd288710e9bf3387729f5dabac55861d,PennController,48,0,test,NULL,PennController,53,_Header_,End,1721645169754,undefined,1091,honest,positive,NULL
1721645307,cd288710e9bf3387729f5dabac55861d,PennController,48,0,test,NULL,Selector,unnamed-Selector,Selection,negative,1721645171349,undefined,1091,honest,positive,negative;positive;neutral
1721645307,cd288710e9bf3387729f5dabac55861d,PennController,48,0,test,NULL,PennController,53,_Trial_,End,1721645171350,undefined,1091,honest,positive,NULL
1721645307,cd288710e9bf3387729f5dabac55861d,PennController,51,0,test,NULL,PennController,56,_Trial_,Start,1721645171355,undefined,779,joyful,positive,NULL
1721645307,cd288710e9bf3387729f5dabac55861d,PennController,51,0,test,NULL,PennController,56,_Header_,Start,1721645171355,undefined,779,joyful,positive,NULL
1721645307,cd288710e9bf3387729f5dabac55861d,PennController,51,0,test,NULL,PennController,56,_Header_,End,1721645171605,undefined,779,joyful,positive,NULL
1721645307,cd288710e9bf3387729f5dabac55861d,PennController,51,0,test,NULL,Selector,unnamed-Selector,Selection,negative,1721645172888,undefined,779,joyful,positive,negative;positive;neutral
1721645307,cd288710e9bf3387729f5dabac55861d,PennController,51,0,test,NULL,PennController,56,_Trial_,End,1721645172888,undefined,779,joyful,positive,NULL
1721645307,cd288710e9bf3387729f5dabac55861d,PennController,11,0,test,NULL,PennController,16,_Trial_,Start,1721645172893,undefined,1093,gonorrhea,negative,NULL
1721645307,cd288710e9bf3387729f5dabac55861d,PennController,11,0,test,NULL,PennController,16,_Header_,Start,1721645172893,undefined,1093,gonorrhea,negative,NULL
1721645307,cd288710e9bf3387729f5dabac55861d,PennController,11,0,test,NULL,PennController,16,_Header_,End,1721645173148,undefined,1093,gonorrhea,negative,NULL
1721645307,cd288710e9bf3387729f5dabac55861d,PennController,11,0,test,NULL,Selector,unnamed-Selector,Selection,neutral,1721645174748,undefined,1093,gonorrhea,negative,negative;positive;neutral
1721645307,cd288710e9bf3387729f5dabac55861d,PennController,11,0,test,NULL,PennController,16,_Trial_,End,1721645174749,undefined,1093,gonorrhea,negative,NULL
1721645307,cd288710e9bf3387729f5dabac55861d,PennController,6,0,test,NULL,PennController,11,_Trial_,Start,1721645174754,undefined,939,die,negative,NULL
1721645307,cd288710e9bf3387729f5dabac55861d,PennController,6,0,test,NULL,PennController,11,_Header_,Start,1721645174754,undefined,939,die,negative,NULL
1721645307,cd288710e9bf3387729f5dabac55861d,PennController,6,0,test,NULL,PennController,11,_Header_,End,1721645175004,undefined,939,die,negative,NULL
1721645307,cd288710e9bf3387729f5dabac55861d,PennController,6,0,test,NULL,Selector,unnamed-Selector,Selection,neutral,1721645176445,undefined,939,die,negative,negative;positive;neutral
1721645307,cd288710e9bf3387729f5dabac55861d,PennController,6,0,test,NULL,PennController,11,_Trial_,End,1721645176446,undefined,939,die,negative,NULL
1721645307,cd288710e9bf3387729f5dabac55861d,PennController,43,0,test,NULL,PennController,48,_Trial_,Start,1721645176451,undefined,1215,fantastic,positive,NULL
1721645307,cd288710e9bf3387729f5dabac55861d,PennController,43,0,test,NULL,PennController,48,_Header_,Start,1721645176451,undefined,1215,fantastic,positive,NULL
1721645307,cd288710e9bf3387729f5dabac55861d,PennController,43,0,test,NULL,PennController,48,_Header_,End,1721645176704,undefined,1215,fantastic,positive,NULL
1721645307,cd288710e9bf3387729f5dabac55861d,PennController,43,0,test,NULL,Selector,unnamed-Selector,Selection,negative,1721645178423,undefined,1215,fantastic,positive,negative;positive;neutral
1721645307,cd288710e9bf3387729f5dabac55861d,PennController,43,0,test,NULL,PennController,48,_Trial_,End,1721645178425,undefined,1215,fantastic,positive,NULL
1721645307,cd288710e9bf3387729f5dabac55861d,PennController,2,0,test,NULL,PennController,7,_Trial_,Start,1721645178429,undefined,1625,abuse,negative,NULL
1721645307,cd288710e9bf3387729f5dabac55861d,PennController,2,0,test,NULL,PennController,7,_Header_,Start,1721645178429,undefined,1625,abuse,negative,NULL
1721645307,cd288710e9bf3387729f5dabac55861d,PennController,2,0,test,NULL,PennController,7,_Header_,End,1721645178681,undefined,1625,abuse,negative,NULL
1721645307,cd288710e9bf3387729f5dabac55861d,PennController,2,0,test,NULL,Selector,unnamed-Selector,Selection,neutral,1721645180811,undefined,1625,abuse,negative,negative;positive;neutral
1721645307,cd288710e9bf3387729f5dabac55861d,PennController,2,0,test,NULL,PennController,7,_Trial_,End,1721645180815,undefined,1625,abuse,negative,NULL
1721645307,cd288710e9bf3387729f5dabac55861d,PennController,25,0,test,NULL,PennController,30,_Trial_,Start,1721645180825,undefined,998,pedophile,negative,NULL
1721645307,cd288710e9bf3387729f5dabac55861d,PennController,25,0,test,NULL,PennController,30,_Header_,Start,1721645180825,undefined,998,pedophile,negative,NULL
1721645307,cd288710e9bf3387729f5dabac55861d,PennController,25,0,test,NULL,PennController,30,_Header_,End,1721645181079,undefined,998,pedophile,negative,NULL
1721645307,cd288710e9bf3387729f5dabac55861d,PennController,25,0,test,NULL,Selector,unnamed-Selector,Selection,neutral,1721645182587,undefined,998,pedophile,negative,negative;positive;neutral
1721645307,cd288710e9bf3387729f5dabac55861d,PennController,25,0,test,NULL,PennController,30,_Trial_,End,1721645182588,undefined,998,pedophile,negative,NULL
1721645307,cd288710e9bf3387729f5dabac55861d,PennController,124,0,test,NULL,PennController,129,_Trial_,Start,1721645182594,undefined,1438,widen,neutral,NULL
1721645307,cd288710e9bf3387729f5dabac55861d,PennController,124,0,test,NULL,PennController,129,_Header_,Start,1721645182594,undefined,1438,widen,neutral,NULL
1721645307,cd288710e9bf3387729f5dabac55861d,PennController,124,0,test,NULL,PennController,129,_Header_,End,1721645182849,undefined,1438,widen,neutral,NULL
1721645307,cd288710e9bf3387729f5dabac55861d,PennController,124,0,test,NULL,Selector,unnamed-Selector,Selection,positive,1721645184792,undefined,1438,widen,neutral,negative;positive;neutral
1721645307,cd288710e9bf3387729f5dabac55861d,PennController,124,0,test,NULL,PennController,129,_Trial_,End,1721645184794,undefined,1438,widen,neutral,NULL
1721645307,cd288710e9bf3387729f5dabac55861d,PennController,87,0,test,NULL,PennController,92,_Trial_,Start,1721645184800,undefined,1315,honcho,neutral,NULL
1721645307,cd288710e9bf3387729f5dabac55861d,PennController,87,0,test,NULL,PennController,92,_Header_,Start,1721645184800,undefined,1315,honcho,neutral,NULL
1721645307,cd288710e9bf3387729f5dabac55861d,PennController,87,0,test,NULL,PennController,92,_Header_,End,1721645185050,undefined,1315,honcho,neutral,NULL
1721645307,cd288710e9bf3387729f5dabac55861d,PennController,87,0,test,NULL,Selector,unnamed-Selector,Selection,positive,1721645186871,undefined,1315,honcho,neutral,negative;positive;neutral
1721645307,cd288710e9bf3387729f5dabac55861d,PennController,87,0,test,NULL,PennController,92,_Trial_,End,1721645186872,undefined,1315,honcho,neutral,NULL
1721645307,cd288710e9bf3387729f5dabac55861d,PennController,4,0,test,NULL,PennController,9,_Trial_,Start,1721645186877,undefined,1335,asphyxiation,negative,NULL
1721645307,cd288710e9bf3387729f5dabac55861d,PennController,4,0,test,NULL,PennController,9,_Header_,Start,1721645186877,undefined,1335,asphyxiation,negative,NULL
1721645307,cd288710e9bf3387729f5dabac55861d,PennController,4,0,test,NULL,PennController,9,_Header_,End,1721645187131,undefined,1335,asphyxiation,negative,NULL
1721645307,cd288710e9bf3387729f5dabac55861d,PennController,4,0,test,NULL,Selector,unnamed-Selector,Selection,neutral,1721645188973,undefined,1335,asphyxiation,negative,negative;positive;neutral
1721645307,cd288710e9bf3387729f5dabac55861d,PennController,4,0,test,NULL,PennController,9,_Trial_,End,1721645188974,undefined,1335,asphyxiation,negative,NULL
1721645307,cd288710e9bf3387729f5dabac55861d,PennController,31,0,test,NULL,PennController,36,_Trial_,Start,1721645188979,undefined,916,terrorism,negative,NULL
1721645307,cd288710e9bf3387729f5dabac55861d,PennController,31,0,test,NULL,PennController,36,_Header_,Start,1721645188979,undefined,916,terrorism,negative,NULL
1721645307,cd288710e9bf3387729f5dabac55861d,PennController,31,0,test,NULL,PennController,36,_Header_,End,1721645189232,undefined,916,terrorism,negative,NULL
1721645307,cd288710e9bf3387729f5dabac55861d,PennController,31,0,test,NULL,Selector,unnamed-Selector,Selection,neutral,1721645190653,undefined,916,terrorism,negative,negative;positive;neutral
1721645307,cd288710e9bf3387729f5dabac55861d,PennController,31,0,test,NULL,PennController,36,_Trial_,End,1721645190654,undefined,916,terrorism,negative,NULL
1721645307,cd288710e9bf3387729f5dabac55861d,PennController,93,0,test,NULL,PennController,98,_Trial_,Start,1721645190658,undefined,1727,knick,neutral,NULL
1721645307,cd288710e9bf3387729f5dabac55861d,PennController,93,0,test,NULL,PennController,98,_Header_,Start,1721645190658,undefined,1727,knick,neutral,NULL
1721645307,cd288710e9bf3387729f5dabac55861d,PennController,93,0,test,NULL,PennController,98,_Header_,End,1721645190912,undefined,1727,knick,neutral,NULL
1721645307,cd288710e9bf3387729f5dabac55861d,PennController,93,0,test,NULL,Selector,unnamed-Selector,Selection,positive,1721645193145,undefined,1727,knick,neutral,negative;positive;neutral
1721645307,cd288710e9bf3387729f5dabac55861d,PennController,93,0,test,NULL,PennController,98,_Trial_,End,1721645193147,undefined,1727,knick,neutral,NULL
1721645307,cd288710e9bf3387729f5dabac55861d,PennController,68,0,test,NULL,PennController,73,_Trial_,Start,1721645193151,undefined,1254,broomstick,neutral,NULL
1721645307,cd288710e9bf3387729f5dabac55861d,PennController,68,0,test,NULL,PennController,73,_Header_,Start,1721645193151,undefined,1254,broomstick,neutral,NULL
1721645307,cd288710e9bf3387729f5dabac55861d,PennController,68,0,test,NULL,PennController,73,_Header_,End,1721645193402,undefined,1254,broomstick,neutral,NULL
1721645307,cd288710e9bf3387729f5dabac55861d,PennController,68,0,test,NULL,Selector,unnamed-Selector,Selection,positive,1721645195158,undefined,1254,broomstick,neutral,negative;positive;neutral
1721645307,cd288710e9bf3387729f5dabac55861d,PennController,68,0,test,NULL,PennController,73,_Trial_,End,1721645195159,undefined,1254,broomstick,neutral,NULL
1721645307,cd288710e9bf3387729f5dabac55861d,PennController,122,0,test,NULL,PennController,127,_Trial_,Start,1721645195163,undefined,1103,unchanged,neutral,NULL
1721645307,cd288710e9bf3387729f5dabac55861d,PennController,122,0,test,NULL,PennController,127,_Header_,Start,1721645195163,undefined,1103,unchanged,neutral,NULL
1721645307,cd288710e9bf3387729f5dabac55861d,PennController,122,0,test,NULL,PennController,127,_Header_,End,1721645195415,undefined,1103,unchanged,neutral,NULL
1721645307,cd288710e9bf3387729f5dabac55861d,PennController,122,0,test,NULL,Selector,unnamed-Selector,Selection,positive,1721645197021,undefined,1103,unchanged,neutral,negative;positive;neutral
1721645307,cd288710e9bf3387729f5dabac55861d,PennController,122,0,test,NULL,PennController,127,_Trial_,End,1721645197022,undefined,1103,unchanged,neutral,NULL
1721645307,cd288710e9bf3387729f5dabac55861d,PennController,107,0,test,NULL,PennController,112,_Trial_,Start,1721645197027,undefined,1231,rephrase,neutral,NULL
1721645307,cd288710e9bf3387729f5dabac55861d,PennController,107,0,test,NULL,PennController,112,_Header_,Start,1721645197027,undefined,1231,rephrase,neutral,NULL
1721645307,cd288710e9bf3387729f5dabac55861d,PennController,107,0,test,NULL,PennController,112,_Header_,End,1721645197278,undefined,1231,rephrase,neutral,NULL
1721645307,cd288710e9bf3387729f5dabac55861d,PennController,107,0,test,NULL,Selector,unnamed-Selector,Selection,positive,1721645199015,undefined,1231,rephrase,neutral,negative;positive;neutral
1721645307,cd288710e9bf3387729f5dabac55861d,PennController,107,0,test,NULL,PennController,112,_Trial_,End,1721645199016,undefined,1231,rephrase,neutral,NULL
1721645307,cd288710e9bf3387729f5dabac55861d,PennController,17,0,test,NULL,PennController,22,_Trial_,Start,1721645199020,undefined,912,leukemia,negative,NULL
1721645307,cd288710e9bf3387729f5dabac55861d,PennController,17,0,test,NULL,PennController,22,_Header_,Start,1721645199020,undefined,912,leukemia,negative,NULL
1721645307,cd288710e9bf3387729f5dabac55861d,PennController,17,0,test,NULL,PennController,22,_Header_,End,1721645199274,undefined,912,leukemia,negative,NULL
1721645307,cd288710e9bf3387729f5dabac55861d,PennController,17,0,test,NULL,Selector,unnamed-Selector,Selection,neutral,1721645200691,undefined,912,leukemia,negative,negative;positive;neutral
1721645307,cd288710e9bf3387729f5dabac55861d,PennController,17,0,test,NULL,PennController,22,_Trial_,End,1721645200693,undefined,912,leukemia,negative,NULL
1721645307,cd288710e9bf3387729f5dabac55861d,PennController,117,0,test,NULL,PennController,122,_Trial_,Start,1721645200697,undefined,1137,textbook,neutral,NULL
1721645307,cd288710e9bf3387729f5dabac55861d,PennController,117,0,test,NULL,PennController,122,_Header_,Start,1721645200697,undefined,1137,textbook,neutral,NULL
1721645307,cd288710e9bf3387729f5dabac55861d,PennController,117,0,test,NULL,PennController,122,_Header_,End,1721645200950,undefined,1137,textbook,neutral,NULL
1721645307,cd288710e9bf3387729f5dabac55861d,PennController,117,0,test,NULL,Selector,unnamed-Selector,Selection,positive,1721645202593,undefined,1137,textbook,neutral,negative;positive;neutral
1721645307,cd288710e9bf3387729f5dabac55861d,PennController,117,0,test,NULL,PennController,122,_Trial_,End,1721645202594,undefined,1137,textbook,neutral,NULL
1721645307,cd288710e9bf3387729f5dabac55861d,PennController,27,0,test,NULL,PennController,32,_Trial_,Start,1721645202599,undefined,996,rape,negative,NULL
1721645307,cd288710e9bf3387729f5dabac55861d,PennController,27,0,test,NULL,PennController,32,_Header_,Start,1721645202599,undefined,996,rape,negative,NULL
1721645307,cd288710e9bf3387729f5dabac55861d,PennController,27,0,test,NULL,PennController,32,_Header_,End,1721645202849,undefined,996,rape,negative,NULL
1721645307,cd288710e9bf3387729f5dabac55861d,PennController,27,0,test,NULL,Selector,unnamed-Selector,Selection,neutral,1721645204351,undefined,996,rape,negative,negative;positive;neutral
1721645307,cd288710e9bf3387729f5dabac55861d,PennController,27,0,test,NULL,PennController,32,_Trial_,End,1721645204353,undefined,996,rape,negative,NULL
1721645307,cd288710e9bf3387729f5dabac55861d,PennController,47,0,test,NULL,PennController,52,_Trial_,Start,1721645204356,undefined,1085,happy,positive,NULL
1721645307,cd288710e9bf3387729f5dabac55861d,PennController,47,0,test,NULL,PennController,52,_Header_,Start,1721645204356,undefined,1085,happy,positive,NULL
1721645307,cd288710e9bf3387729f5dabac55861d,PennController,47,0,test,NULL,PennController,52,_Header_,End,1721645204608,undefined,1085,happy,positive,NULL
1721645307,cd288710e9bf3387729f5dabac55861d,PennController,47,0,test,NULL,Selector,unnamed-Selector,Selection,negative,1721645206197,undefined,1085,happy,positive,negative;positive;neutral
1721645307,cd288710e9bf3387729f5dabac55861d,PennController,47,0,test,NULL,PennController,52,_Trial_,End,1721645206198,undefined,1085,happy,positive,NULL
1721645307,cd288710e9bf3387729f5dabac55861d,PennController,7,0,test,NULL,PennController,12,_Trial_,Start,1721645206203,undefined,922,disaster,negative,NULL
1721645307,cd288710e9bf3387729f5dabac55861d,PennController,7,0,test,NULL,PennController,12,_Header_,Start,1721645206203,undefined,922,disaster,negative,NULL
1721645307,cd288710e9bf3387729f5dabac55861d,PennController,7,0,test,NULL,PennController,12,_Header_,End,1721645206453,undefined,922,disaster,negative,NULL
1721645307,cd288710e9bf3387729f5dabac55861d,PennController,7,0,test,NULL,Selector,unnamed-Selector,Selection,neutral,1721645207880,undefined,922,disaster,negative,negative;positive;neutral
1721645307,cd288710e9bf3387729f5dabac55861d,PennController,7,0,test,NULL,PennController,12,_Trial_,End,1721645207881,undefined,922,disaster,negative,NULL
1721645307,cd288710e9bf3387729f5dabac55861d,PennController,73,0,test,NULL,PennController,78,_Trial_,Start,1721645207885,undefined,1224,commissary,neutral,NULL
1721645307,cd288710e9bf3387729f5dabac55861d,PennController,73,0,test,NULL,PennController,78,_Header_,Start,1721645207885,undefined,1224,commissary,neutral,NULL
1721645307,cd288710e9bf3387729f5dabac55861d,PennController,73,0,test,NULL,PennController,78,_Header_,End,1721645208138,undefined,1224,commissary,neutral,NULL
1721645307,cd288710e9bf3387729f5dabac55861d,PennController,73,0,test,NULL,Selector,unnamed-Selector,Selection,positive,1721645209868,undefined,1224,commissary,neutral,negative;positive;neutral
1721645307,cd288710e9bf3387729f5dabac55861d,PennController,73,0,test,NULL,PennController,78,_Trial_,End,1721645209869,undefined,1224,commissary,neutral,NULL
1721645307,cd288710e9bf3387729f5dabac55861d,PennController,98,0,test,NULL,PennController,103,_Trial_,Start,1721645209873,undefined,1160,numerical,neutral,NULL
1721645307,cd288710e9bf3387729f5dabac55861d,PennController,98,0,test,NULL,PennController,103,_Header_,Start,1721645209873,undefined,1160,numerical,neutral,NULL
1721645307,cd288710e9bf3387729f5dabac55861d,PennController,98,0,test,NULL,PennController,103,_Header_,End,1721645210125,undefined,1160,numerical,neutral,NULL
1721645307,cd288710e9bf3387729f5dabac55861d,PennController,98,0,test,NULL,Selector,unnamed-Selector,Selection,positive,1721645211791,undefined,1160,numerical,neutral,negative;positive;neutral
1721645307,cd288710e9bf3387729f5dabac55861d,PennController,98,0,test,NULL,PennController,103,_Trial_,End,1721645211793,undefined,1160,numerical,neutral,NULL
1721645307,cd288710e9bf3387729f5dabac55861d,PennController,28,0,test,NULL,PennController,33,_Trial_,Start,1721645211797,undefined,856,rapist,negative,NULL
1721645307,cd288710e9bf3387729f5dabac55861d,PennController,28,0,test,NULL,PennController,33,_Header_,Start,1721645211797,undefined,856,rapist,negative,NULL
1721645307,cd288710e9bf3387729f5dabac55861d,PennController,28,0,test,NULL,PennController,33,_Header_,End,1721645212048,undefined,856,rapist,negative,NULL
1721645307,cd288710e9bf3387729f5dabac55861d,PennController,28,0,test,NULL,Selector,unnamed-Selector,Selection,neutral,1721645213407,undefined,856,rapist,negative,negative;positive;neutral
1721645307,cd288710e9bf3387729f5dabac55861d,PennController,28,0,test,NULL,PennController,33,_Trial_,End,1721645213408,undefined,856,rapist,negative,NULL
1721645307,cd288710e9bf3387729f5dabac55861d,PennController,75,0,test,NULL,PennController,80,_Trial_,Start,1721645213411,undefined,1793,contender,neutral,NULL
1721645307,cd288710e9bf3387729f5dabac55861d,PennController,75,0,test,NULL,PennController,80,_Header_,Start,1721645213411,undefined,1793,contender,neutral,NULL
1721645307,cd288710e9bf3387729f5dabac55861d,PennController,75,0,test,NULL,PennController,80,_Header_,End,1721645213664,undefined,1793,contender,neutral,NULL
1721645307,cd288710e9bf3387729f5dabac55861d,PennController,75,0,test,NULL,Selector,unnamed-Selector,Selection,positive,1721645215964,undefined,1793,contender,neutral,negative;positive;neutral
1721645307,cd288710e9bf3387729f5dabac55861d,PennController,75,0,test,NULL,PennController,80,_Trial_,End,1721645215966,undefined,1793,contender,neutral,NULL
1721645307,cd288710e9bf3387729f5dabac55861d,PennController,64,0,test,NULL,PennController,69,_Trial_,Start,1721645215969,undefined,2140,backwoods,neutral,NULL
1721645307,cd288710e9bf3387729f5dabac55861d,PennController,64,0,test,NULL,PennController,69,_Header_,Start,1721645215969,undefined,2140,backwoods,neutral,NULL
1721645307,cd288710e9bf3387729f5dabac55861d,PennController,64,0,test,NULL,PennController,69,_Header_,End,1721645216220,undefined,2140,backwoods,neutral,NULL
1721645307,cd288710e9bf3387729f5dabac55861d,PennController,64,0,test,NULL,Selector,unnamed-Selector,Selection,positive,1721645218867,undefined,2140,backwoods,neutral,negative;positive;neutral
1721645307,cd288710e9bf3387729f5dabac55861d,PennController,64,0,test,NULL,PennController,69,_Trial_,End,1721645218869,undefined,2140,backwoods,neutral,NULL
1721645307,cd288710e9bf3387729f5dabac55861d,PennController,20,0,test,NULL,PennController,25,_Trial_,Start,1721645218873,undefined,854,motherfucker,negative,NULL
1721645307,cd288710e9bf3387729f5dabac55861d,PennController,20,0,test,NULL,PennController,25,_Header_,Start,1721645218873,undefined,854,motherfucker,negative,NULL
1721645307,cd288710e9bf3387729f5dabac55861d,PennController,20,0,test,NULL,PennController,25,_Header_,End,1721645219126,undefined,854,motherfucker,negative,NULL
1721645307,cd288710e9bf3387729f5dabac55861d,PennController,20,0,test,NULL,Selector,unnamed-Selector,Selection,neutral,1721645220487,undefined,854,motherfucker,negative,negative;positive;neutral
1721645307,cd288710e9bf3387729f5dabac55861d,PennController,20,0,test,NULL,PennController,25,_Trial_,End,1721645220488,undefined,854,motherfucker,negative,NULL
1721645307,cd288710e9bf3387729f5dabac55861d,PennController,114,0,test,NULL,PennController,119,_Trial_,Start,1721645220493,undefined,1068,stow,neutral,NULL
1721645307,cd288710e9bf3387729f5dabac55861d,PennController,114,0,test,NULL,PennController,119,_Header_,Start,1721645220493,undefined,1068,stow,neutral,NULL
1721645307,cd288710e9bf3387729f5dabac55861d,PennController,114,0,test,NULL,PennController,119,_Header_,End,1721645220745,undefined,1068,stow,neutral,NULL
1721645307,cd288710e9bf3387729f5dabac55861d,PennController,114,0,test,NULL,Selector,unnamed-Selector,Selection,positive,1721645222318,undefined,1068,stow,neutral,negative;positive;neutral
1721645307,cd288710e9bf3387729f5dabac55861d,PennController,114,0,test,NULL,PennController,119,_Trial_,End,1721645222320,undefined,1068,stow,neutral,NULL
1721645307,cd288710e9bf3387729f5dabac55861d,PennController,79,0,test,NULL,PennController,84,_Trial_,Start,1721645222324,undefined,838,dab,neutral,NULL
1721645307,cd288710e9bf3387729f5dabac55861d,PennController,79,0,test,NULL,PennController,84,_Header_,Start,1721645222324,undefined,838,dab,neutral,NULL
1721645307,cd288710e9bf3387729f5dabac55861d,PennController,79,0,test,NULL,PennController,84,_Header_,End,1721645222576,undefined,838,dab,neutral,NULL
1721645307,cd288710e9bf3387729f5dabac55861d,PennController,79,0,test,NULL,Selector,unnamed-Selector,Selection,positive,1721645223918,undefined,838,dab,neutral,negative;positive;neutral
1721645307,cd288710e9bf3387729f5dabac55861d,PennController,79,0,test,NULL,PennController,84,_Trial_,End,1721645223920,undefined,838,dab,neutral,NULL
1721645307,cd288710e9bf3387729f5dabac55861d,PennController,5,0,test,NULL,PennController,10,_Trial_,Start,1721645223925,undefined,2483,chemo,negative,NULL
1721645307,cd288710e9bf3387729f5dabac55861d,PennController,5,0,test,NULL,PennController,10,_Header_,Start,1721645223925,undefined,2483,chemo,negative,NULL
1721645307,cd288710e9bf3387729f5dabac55861d,PennController,5,0,test,NULL,PennController,10,_Header_,End,1721645224176,undefined,2483,chemo,negative,NULL
1721645307,cd288710e9bf3387729f5dabac55861d,PennController,5,0,test,NULL,Selector,unnamed-Selector,Selection,positive,1721645227161,undefined,2483,chemo,negative,negative;positive;neutral
1721645307,cd288710e9bf3387729f5dabac55861d,PennController,5,0,test,NULL,PennController,10,_Trial_,End,1721645227162,undefined,2483,chemo,negative,NULL
1721645307,cd288710e9bf3387729f5dabac55861d,PennController,57,0,test,NULL,PennController,62,_Trial_,Start,1721645227166,undefined,1965,relaxing,positive,NULL
1721645307,cd288710e9bf3387729f5dabac55861d,PennController,57,0,test,NULL,PennController,62,_Header_,Start,1721645227166,undefined,1965,relaxing,positive,NULL
1721645307,cd288710e9bf3387729f5dabac55861d,PennController,57,0,test,NULL,PennController,62,_Header_,End,1721645227420,undefined,1965,relaxing,positive,NULL
1721645307,cd288710e9bf3387729f5dabac55861d,PennController,57,0,test,NULL,Selector,unnamed-Selector,Selection,positive,1721645229889,undefined,1965,relaxing,positive,negative;positive;neutral
1721645307,cd288710e9bf3387729f5dabac55861d,PennController,57,0,test,NULL,PennController,62,_Trial_,End,1721645229890,undefined,1965,relaxing,positive,NULL
1721645307,cd288710e9bf3387729f5dabac55861d,PennController,14,0,test,NULL,PennController,19,_Trial_,Start,1721645229895,undefined,1070,HIV,negative,NULL
1721645307,cd288710e9bf3387729f5dabac55861d,PennController,14,0,test,NULL,PennController,19,_Header_,Start,1721645229895,undefined,1070,HIV,negative,NULL
1721645307,cd288710e9bf3387729f5dabac55861d,PennController,14,0,test,NULL,PennController,19,_Header_,End,1721645230146,undefined,1070,HIV,negative,NULL
1721645307,cd288710e9bf3387729f5dabac55861d,PennController,14,0,test,NULL,Selector,unnamed-Selector,Selection,neutral,1721645231720,undefined,1070,HIV,negative,negative;positive;neutral
1721645307,cd288710e9bf3387729f5dabac55861d,PennController,14,0,test,NULL,PennController,19,_Trial_,End,1721645231721,undefined,1070,HIV,negative,NULL
1721645307,cd288710e9bf3387729f5dabac55861d,PennController,15,0,test,NULL,PennController,20,_Trial_,Start,1721645231725,undefined,1287,homicide,negative,NULL
1721645307,cd288710e9bf3387729f5dabac55861d,PennController,15,0,test,NULL,PennController,20,_Header_,Start,1721645231725,undefined,1287,homicide,negative,NULL
1721645307,cd288710e9bf3387729f5dabac55861d,PennController,15,0,test,NULL,PennController,20,_Header_,End,1721645231978,undefined,1287,homicide,negative,NULL
1721645307,cd288710e9bf3387729f5dabac55861d,PennController,15,0,test,NULL,Selector,unnamed-Selector,Selection,neutral,1721645233771,undefined,1287,homicide,negative,negative;positive;neutral
1721645307,cd288710e9bf3387729f5dabac55861d,PennController,15,0,test,NULL,PennController,20,_Trial_,End,1721645233772,undefined,1287,homicide,negative,NULL
1721645307,cd288710e9bf3387729f5dabac55861d,PennController,49,0,test,NULL,PennController,54,_Trial_,Start,1721645233777,undefined,1050,hug,positive,NULL
1721645307,cd288710e9bf3387729f5dabac55861d,PennController,49,0,test,NULL,PennController,54,_Header_,Start,1721645233777,undefined,1050,hug,positive,NULL
1721645307,cd288710e9bf3387729f5dabac55861d,PennController,49,0,test,NULL,PennController,54,_Header_,End,1721645234030,undefined,1050,hug,positive,NULL
1721645307,cd288710e9bf3387729f5dabac55861d,PennController,49,0,test,NULL,Selector,unnamed-Selector,Selection,negative,1721645235586,undefined,1050,hug,positive,negative;positive;neutral
1721645307,cd288710e9bf3387729f5dabac55861d,PennController,49,0,test,NULL,PennController,54,_Trial_,End,1721645235587,undefined,1050,hug,positive,NULL
1721645307,cd288710e9bf3387729f5dabac55861d,PennController,67,0,test,NULL,PennController,72,_Trial_,Start,1721645235591,undefined,1006,borough,neutral,NULL
1721645307,cd288710e9bf3387729f5dabac55861d,PennController,67,0,test,NULL,PennController,72,_Header_,Start,1721645235591,undefined,1006,borough,neutral,NULL
1721645307,cd288710e9bf3387729f5dabac55861d,PennController,67,0,test,NULL,PennController,72,_Header_,End,1721645235843,undefined,1006,borough,neutral,NULL
1721645307,cd288710e9bf3387729f5dabac55861d,PennController,67,0,test,NULL,Selector,unnamed-Selector,Selection,positive,1721645237355,undefined,1006,borough,neutral,negative;positive;neutral
1721645307,cd288710e9bf3387729f5dabac55861d,PennController,67,0,test,NULL,PennController,72,_Trial_,End,1721645237357,undefined,1006,borough,neutral,NULL
1721645307,cd288710e9bf3387729f5dabac55861d,PennController,33,0,test,NULL,PennController,38,_Trial_,Start,1721645237361,undefined,827,virus,negative,NULL
1721645307,cd288710e9bf3387729f5dabac55861d,PennController,33,0,test,NULL,PennController,38,_Header_,Start,1721645237361,undefined,827,virus,negative,NULL
1721645307,cd288710e9bf3387729f5dabac55861d,PennController,33,0,test,NULL,PennController,38,_Header_,End,1721645237614,undefined,827,virus,negative,NULL
1721645307,cd288710e9bf3387729f5dabac55861d,PennController,33,0,test,NULL,Selector,unnamed-Selector,Selection,neutral,1721645238945,undefined,827,virus,negative,negative;positive;neutral
1721645307,cd288710e9bf3387729f5dabac55861d,PennController,33,0,test,NULL,PennController,38,_Trial_,End,1721645238946,undefined,827,virus,negative,NULL
1721645307,cd288710e9bf3387729f5dabac55861d,PennController,60,0,test,NULL,PennController,65,_Trial_,Start,1721645238951,undefined,997,ajar,neutral,NULL
1721645307,cd288710e9bf3387729f5dabac55861d,PennController,60,0,test,NULL,PennController,65,_Header_,Start,1721645238951,undefined,997,ajar,neutral,NULL
1721645307,cd288710e9bf3387729f5dabac55861d,PennController,60,0,test,NULL,PennController,65,_Header_,End,1721645239203,undefined,997,ajar,neutral,NULL
1721645307,cd288710e9bf3387729f5dabac55861d,PennController,60,0,test,NULL,Selector,unnamed-Selector,Selection,positive,1721645240708,undefined,997,ajar,neutral,negative;positive;neutral
1721645307,cd288710e9bf3387729f5dabac55861d,PennController,60,0,test,NULL,PennController,65,_Trial_,End,1721645240709,undefined,997,ajar,neutral,NULL
1721645307,cd288710e9bf3387729f5dabac55861d,PennController,82,0,test,NULL,PennController,87,_Trial_,Start,1721645240713,undefined,1725,eleven,neutral,NULL
1721645307,cd288710e9bf3387729f5dabac55861d,PennController,82,0,test,NULL,PennController,87,_Header_,Start,1721645240713,undefined,1725,eleven,neutral,NULL
1721645307,cd288710e9bf3387729f5dabac55861d,PennController,82,0,test,NULL,PennController,87,_Header_,End,1721645240964,undefined,1725,eleven,neutral,NULL
1721645307,cd288710e9bf3387729f5dabac55861d,PennController,82,0,test,NULL,Selector,unnamed-Selector,Selection,positive,1721645243196,undefined,1725,eleven,neutral,negative;positive;neutral
1721645307,cd288710e9bf3387729f5dabac55861d,PennController,82,0,test,NULL,PennController,87,_Trial_,End,1721645243197,undefined,1725,eleven,neutral,NULL
1721645307,cd288710e9bf3387729f5dabac55861d,PennController,81,0,test,NULL,PennController,86,_Trial_,Start,1721645243202,undefined,899,domino,neutral,NULL
1721645307,cd288710e9bf3387729f5dabac55861d,PennController,81,0,test,NULL,PennController,86,_Header_,Start,1721645243202,undefined,899,domino,neutral,NULL
1721645307,cd288710e9bf3387729f5dabac55861d,PennController,81,0,test,NULL,PennController,86,_Header_,End,1721645243454,undefined,899,domino,neutral,NULL
1721645307,cd288710e9bf3387729f5dabac55861d,PennController,81,0,test,NULL,Selector,unnamed-Selector,Selection,positive,1721645244860,undefined,899,domino,neutral,negative;positive;neutral
1721645307,cd288710e9bf3387729f5dabac55861d,PennController,81,0,test,NULL,PennController,86,_Trial_,End,1721645244861,undefined,899,domino,neutral,NULL
1721645307,cd288710e9bf3387729f5dabac55861d,PennController,71,0,test,NULL,PennController,76,_Trial_,Start,1721645244865,undefined,823,circumstance,neutral,NULL
1721645307,cd288710e9bf3387729f5dabac55861d,PennController,71,0,test,NULL,PennController,76,_Header_,Start,1721645244865,undefined,823,circumstance,neutral,NULL
1721645307,cd288710e9bf3387729f5dabac55861d,PennController,71,0,test,NULL,PennController,76,_Header_,End,1721645245119,undefined,823,circumstance,neutral,NULL
1721645307,cd288710e9bf3387729f5dabac55861d,PennController,71,0,test,NULL,Selector,unnamed-Selector,Selection,positive,1721645246447,undefined,823,circumstance,neutral,negative;positive;neutral
1721645307,cd288710e9bf3387729f5dabac55861d,PennController,71,0,test,NULL,PennController,76,_Trial_,End,1721645246451,undefined,823,circumstance,neutral,NULL
1721645307,cd288710e9bf3387729f5dabac55861d,PennController,42,0,test,NULL,PennController,47,_Trial_,Start,1721645246459,undefined,1110,excited,positive,NULL
1721645307,cd288710e9bf3387729f5dabac55861d,PennController,42,0,test,NULL,PennController,47,_Header_,Start,1721645246459,undefined,1110,excited,positive,NULL
1721645307,cd288710e9bf3387729f5dabac55861d,PennController,42,0,test,NULL,PennController,47,_Header_,End,1721645246713,undefined,1110,excited,positive,NULL
1721645307,cd288710e9bf3387729f5dabac55861d,PennController,42,0,test,NULL,Selector,unnamed-Selector,Selection,negative,1721645248330,undefined,1110,excited,positive,negative;positive;neutral
1721645307,cd288710e9bf3387729f5dabac55861d,PennController,42,0,test,NULL,PennController,47,_Trial_,End,1721645248331,undefined,1110,excited,positive,NULL
1721645307,cd288710e9bf3387729f5dabac55861d,PennController,24,0,test,NULL,PennController,29,_Trial_,Start,1721645248338,undefined,935,nigger,negative,NULL
1721645307,cd288710e9bf3387729f5dabac55861d,PennController,24,0,test,NULL,PennController,29,_Header_,Start,1721645248338,undefined,935,nigger,negative,NULL
1721645307,cd288710e9bf3387729f5dabac55861d,PennController,24,0,test,NULL,PennController,29,_Header_,End,1721645248588,undefined,935,nigger,negative,NULL
1721645307,cd288710e9bf3387729f5dabac55861d,PennController,24,0,test,NULL,Selector,unnamed-Selector,Selection,neutral,1721645250026,undefined,935,nigger,negative,negative;positive;neutral
1721645307,cd288710e9bf3387729f5dabac55861d,PennController,24,0,test,NULL,PennController,29,_Trial_,End,1721645250029,undefined,935,nigger,negative,NULL
1721645307,cd288710e9bf3387729f5dabac55861d,PennController,18,0,test,NULL,PennController,23,_Trial_,Start,1721645250034,undefined,841,lynching,negative,NULL
1721645307,cd288710e9bf3387729f5dabac55861d,PennController,18,0,test,NULL,PennController,23,_Header_,Start,1721645250034,undefined,841,lynching,negative,NULL
1721645307,cd288710e9bf3387729f5dabac55861d,PennController,18,0,test,NULL,PennController,23,_Header_,End,1721645250288,undefined,841,lynching,negative,NULL
1721645307,cd288710e9bf3387729f5dabac55861d,PennController,18,0,test,NULL,Selector,unnamed-Selector,Selection,neutral,1721645251634,undefined,841,lynching,negative,negative;positive;neutral
1721645307,cd288710e9bf3387729f5dabac55861d,PennController,18,0,test,NULL,PennController,23,_Trial_,End,1721645251635,undefined,841,lynching,negative,NULL
1721645307,cd288710e9bf3387729f5dabac55861d,PennController,113,0,test,NULL,PennController,118,_Trial_,Start,1721645251639,undefined,968,speakerphone,neutral,NULL
1721645307,cd288710e9bf3387729f5dabac55861d,PennController,113,0,test,NULL,PennController,118,_Header_,Start,1721645251639,undefined,968,speakerphone,neutral,NULL
1721645307,cd288710e9bf3387729f5dabac55861d,PennController,113,0,test,NULL,PennController,118,_Header_,End,1721645251891,undefined,968,speakerphone,neutral,NULL
1721645307,cd288710e9bf3387729f5dabac55861d,PennController,113,0,test,NULL,Selector,unnamed-Selector,Selection,positive,1721645253365,undefined,968,speakerphone,neutral,negative;positive;neutral
1721645307,cd288710e9bf3387729f5dabac55861d,PennController,113,0,test,NULL,PennController,118,_Trial_,End,1721645253367,undefined,968,speakerphone,neutral,NULL
1721645307,cd288710e9bf3387729f5dabac55861d,PennController,91,0,test,NULL,PennController,96,_Trial_,Start,1721645253372,undefined,910,kelp,neutral,NULL
1721645307,cd288710e9bf3387729f5dabac55861d,PennController,91,0,test,NULL,PennController,96,_Header_,Start,1721645253372,undefined,910,kelp,neutral,NULL
1721645307,cd288710e9bf3387729f5dabac55861d,PennController,91,0,test,NULL,PennController,96,_Header_,End,1721645253626,undefined,910,kelp,neutral,NULL
1721645307,cd288710e9bf3387729f5dabac55861d,PennController,91,0,test,NULL,Selector,unnamed-Selector,Selection,positive,1721645255042,undefined,910,kelp,neutral,negative;positive;neutral
1721645307,cd288710e9bf3387729f5dabac55861d,PennController,91,0,test,NULL,PennController,96,_Trial_,End,1721645255043,undefined,910,kelp,neutral,NULL
1721645307,cd288710e9bf3387729f5dabac55861d,PennController,106,0,test,NULL,PennController,111,_Trial_,Start,1721645255049,undefined,1101,reduction,neutral,NULL
1721645307,cd288710e9bf3387729f5dabac55861d,PennController,106,0,test,NULL,PennController,111,_Header_,Start,1721645255049,undefined,1101,reduction,neutral,NULL
1721645307,cd288710e9bf3387729f5dabac55861d,PennController,106,0,test,NULL,PennController,111,_Header_,End,1721645255303,undefined,1101,reduction,neutral,NULL
1721645307,cd288710e9bf3387729f5dabac55861d,PennController,106,0,test,NULL,Selector,unnamed-Selector,Selection,positive,1721645256909,undefined,1101,reduction,neutral,negative;positive;neutral
1721645307,cd288710e9bf3387729f5dabac55861d,PennController,106,0,test,NULL,PennController,111,_Trial_,End,1721645256911,undefined,1101,reduction,neutral,NULL
1721645307,cd288710e9bf3387729f5dabac55861d,PennController,102,0,test,NULL,PennController,107,_Trial_,Start,1721645256914,undefined,1076,pod,neutral,NULL
1721645307,cd288710e9bf3387729f5dabac55861d,PennController,102,0,test,NULL,PennController,107,_Header_,Start,1721645256914,undefined,1076,pod,neutral,NULL
1721645307,cd288710e9bf3387729f5dabac55861d,PennController,102,0,test,NULL,PennController,107,_Header_,End,1721645257165,undefined,1076,pod,neutral,NULL
1721645307,cd288710e9bf3387729f5dabac55861d,PennController,102,0,test,NULL,Selector,unnamed-Selector,Selection,positive,1721645258746,undefined,1076,pod,neutral,negative;positive;neutral
1721645307,cd288710e9bf3387729f5dabac55861d,PennController,102,0,test,NULL,PennController,107,_Trial_,End,1721645258747,undefined,1076,pod,neutral,NULL
1721645307,cd288710e9bf3387729f5dabac55861d,PennController,74,0,test,NULL,PennController,79,_Trial_,Start,1721645258751,undefined,950,contain,neutral,NULL
1721645307,cd288710e9bf3387729f5dabac55861d,PennController,74,0,test,NULL,PennController,79,_Header_,Start,1721645258751,undefined,950,contain,neutral,NULL
1721645307,cd288710e9bf3387729f5dabac55861d,PennController,74,0,test,NULL,PennController,79,_Header_,End,1721645259004,undefined,950,contain,neutral,NULL
1721645307,cd288710e9bf3387729f5dabac55861d,PennController,74,0,test,NULL,Selector,unnamed-Selector,Selection,positive,1721645260462,undefined,950,contain,neutral,negative;positive;neutral
1721645307,cd288710e9bf3387729f5dabac55861d,PennController,74,0,test,NULL,PennController,79,_Trial_,End,1721645260463,undefined,950,contain,neutral,NULL
1721645307,cd288710e9bf3387729f5dabac55861d,PennController,76,0,test,NULL,PennController,81,_Trial_,Start,1721645260467,undefined,905,context,neutral,NULL
1721645307,cd288710e9bf3387729f5dabac55861d,PennController,76,0,test,NULL,PennController,81,_Header_,Start,1721645260467,undefined,905,context,neutral,NULL
1721645307,cd288710e9bf3387729f5dabac55861d,PennController,76,0,test,NULL,PennController,81,_Header_,End,1721645260722,undefined,905,context,neutral,NULL
1721645307,cd288710e9bf3387729f5dabac55861d,PennController,76,0,test,NULL,Selector,unnamed-Selector,Selection,positive,1721645262136,undefined,905,context,neutral,negative;positive;neutral
1721645307,cd288710e9bf3387729f5dabac55861d,PennController,76,0,test,NULL,PennController,81,_Trial_,End,1721645262137,undefined,905,context,neutral,NULL
1721645307,cd288710e9bf3387729f5dabac55861d,PennController,89,0,test,NULL,PennController,94,_Trial_,Start,1721645262141,undefined,1006,induce,neutral,NULL
1721645307,cd288710e9bf3387729f5dabac55861d,PennController,89,0,test,NULL,PennController,94,_Header_,Start,1721645262141,undefined,1006,induce,neutral,NULL
1721645307,cd288710e9bf3387729f5dabac55861d,PennController,89,0,test,NULL,PennController,94,_Header_,End,1721645262393,undefined,1006,induce,neutral,NULL
1721645307,cd288710e9bf3387729f5dabac55861d,PennController,89,0,test,NULL,Selector,unnamed-Selector,Selection,positive,1721645263905,undefined,1006,induce,neutral,negative;positive;neutral
1721645307,cd288710e9bf3387729f5dabac55861d,PennController,89,0,test,NULL,PennController,94,_Trial_,End,1721645263905,undefined,1006,induce,neutral,NULL
1721645307,cd288710e9bf3387729f5dabac55861d,PennController,29,0,test,NULL,PennController,34,_Trial_,Start,1721645263909,undefined,963,starvation,negative,NULL
1721645307,cd288710e9bf3387729f5dabac55861d,PennController,29,0,test,NULL,PennController,34,_Header_,Start,1721645263909,undefined,963,starvation,negative,NULL
1721645307,cd288710e9bf3387729f5dabac55861d,PennController,29,0,test,NULL,PennController,34,_Header_,End,1721645264164,undefined,963,starvation,negative,NULL
1721645307,cd288710e9bf3387729f5dabac55861d,PennController,29,0,test,NULL,Selector,unnamed-Selector,Selection,neutral,1721645265631,undefined,963,starvation,negative,negative;positive;neutral
1721645307,cd288710e9bf3387729f5dabac55861d,PennController,29,0,test,NULL,PennController,34,_Trial_,End,1721645265632,undefined,963,starvation,negative,NULL
1721645307,cd288710e9bf3387729f5dabac55861d,PennController,118,0,test,NULL,PennController,123,_Trial_,Start,1721645265636,undefined,1027,third,neutral,NULL
1721645307,cd288710e9bf3387729f5dabac55861d,PennController,118,0,test,NULL,PennController,123,_Header_,Start,1721645265636,undefined,1027,third,neutral,NULL
1721645307,cd288710e9bf3387729f5dabac55861d,PennController,118,0,test,NULL,PennController,123,_Header_,End,1721645265887,undefined,1027,third,neutral,NULL
1721645307,cd288710e9bf3387729f5dabac55861d,PennController,118,0,test,NULL,Selector,unnamed-Selector,Selection,positive,1721645267418,undefined,1027,third,neutral,negative;positive;neutral
1721645307,cd288710e9bf3387729f5dabac55861d,PennController,118,0,test,NULL,PennController,123,_Trial_,End,1721645267418,undefined,1027,third,neutral,NULL
1721645307,cd288710e9bf3387729f5dabac55861d,PennController,53,0,test,NULL,PennController,58,_Trial_,Start,1721645267422,undefined,871,lovable,positive,NULL
1721645307,cd288710e9bf3387729f5dabac55861d,PennController,53,0,test,NULL,PennController,58,_Header_,Start,1721645267422,undefined,871,lovable,positive,NULL
1721645307,cd288710e9bf3387729f5dabac55861d,PennController,53,0,test,NULL,PennController,58,_Header_,End,1721645267674,undefined,871,lovable,positive,NULL
1721645307,cd288710e9bf3387729f5dabac55861d,PennController,53,0,test,NULL,Selector,unnamed-Selector,Selection,negative,1721645269047,undefined,871,lovable,positive,negative;positive;neutral
1721645307,cd288710e9bf3387729f5dabac55861d,PennController,53,0,test,NULL,PennController,58,_Trial_,End,1721645269049,undefined,871,lovable,positive,NULL
1721645307,cd288710e9bf3387729f5dabac55861d,PennController,34,0,test,NULL,PennController,39,_Trial_,Start,1721645269052,undefined,1323,wreck,negative,NULL
1721645307,cd288710e9bf3387729f5dabac55861d,PennController,34,0,test,NULL,PennController,39,_Header_,Start,1721645269052,undefined,1323,wreck,negative,NULL
1721645307,cd288710e9bf3387729f5dabac55861d,PennController,34,0,test,NULL,PennController,39,_Header_,End,1721645269305,undefined,1323,wreck,negative,NULL
1721645307,cd288710e9bf3387729f5dabac55861d,PennController,34,0,test,NULL,Selector,unnamed-Selector,Selection,positive,1721645271133,undefined,1323,wreck,negative,negative;positive;neutral
1721645307,cd288710e9bf3387729f5dabac55861d,PennController,34,0,test,NULL,PennController,39,_Trial_,End,1721645271134,undefined,1323,wreck,negative,NULL
1721645307,cd288710e9bf3387729f5dabac55861d,PennController,41,0,test,NULL,PennController,46,_Trial_,Start,1721645271138,undefined,923,enjoyment,positive,NULL
1721645307,cd288710e9bf3387729f5dabac55861d,PennController,41,0,test,NULL,PennController,46,_Header_,Start,1721645271138,undefined,923,enjoyment,positive,NULL
1721645307,cd288710e9bf3387729f5dabac55861d,PennController,41,0,test,NULL,PennController,46,_Header_,End,1721645271389,undefined,923,enjoyment,positive,NULL
1721645307,cd288710e9bf3387729f5dabac55861d,PennController,41,0,test,NULL,Selector,unnamed-Selector,Selection,negative,1721645272817,undefined,923,enjoyment,positive,negative;positive;neutral
1721645307,cd288710e9bf3387729f5dabac55861d,PennController,41,0,test,NULL,PennController,46,_Trial_,End,1721645272818,undefined,923,enjoyment,positive,NULL
1721645307,cd288710e9bf3387729f5dabac55861d,PennController,8,0,test,NULL,PennController,13,_Trial_,Start,1721645272822,undefined,1634,disease,negative,NULL
1721645307,cd288710e9bf3387729f5dabac55861d,PennController,8,0,test,NULL,PennController,13,_Header_,Start,1721645272822,undefined,1634,disease,negative,NULL
1721645307,cd288710e9bf3387729f5dabac55861d,PennController,8,0,test,NULL,PennController,13,_Header_,End,1721645273076,undefined,1634,disease,negative,NULL
1721645307,cd288710e9bf3387729f5dabac55861d,PennController,8,0,test,NULL,Selector,unnamed-Selector,Selection,neutral,1721645275215,undefined,1634,disease,negative,negative;positive;neutral
1721645307,cd288710e9bf3387729f5dabac55861d,PennController,8,0,test,NULL,PennController,13,_Trial_,End,1721645275216,undefined,1634,disease,negative,NULL
1721645307,cd288710e9bf3387729f5dabac55861d,PennController,3,0,test,NULL,PennController,8,_Trial_,Start,1721645275220,undefined,893,AIDS,negative,NULL
1721645307,cd288710e9bf3387729f5dabac55861d,PennController,3,0,test,NULL,PennController,8,_Header_,Start,1721645275220,undefined,893,AIDS,negative,NULL
1721645307,cd288710e9bf3387729f5dabac55861d,PennController,3,0,test,NULL,PennController,8,_Header_,End,1721645275475,undefined,893,AIDS,negative,NULL
1721645307,cd288710e9bf3387729f5dabac55861d,PennController,3,0,test,NULL,Selector,unnamed-Selector,Selection,neutral,1721645276871,undefined,893,AIDS,negative,negative;positive;neutral
1721645307,cd288710e9bf3387729f5dabac55861d,PennController,3,0,test,NULL,PennController,8,_Trial_,End,1721645276872,undefined,893,AIDS,negative,NULL
1721645307,cd288710e9bf3387729f5dabac55861d,PennController,65,0,test,NULL,PennController,70,_Trial_,Start,1721645276876,undefined,964,barometer,neutral,NULL
1721645307,cd288710e9bf3387729f5dabac55861d,PennController,65,0,test,NULL,PennController,70,_Header_,Start,1721645276876,undefined,964,barometer,neutral,NULL
1721645307,cd288710e9bf3387729f5dabac55861d,PennController,65,0,test,NULL,PennController,70,_Header_,End,1721645277126,undefined,964,barometer,neutral,NULL
1721645307,cd288710e9bf3387729f5dabac55861d,PennController,65,0,test,NULL,Selector,unnamed-Selector,Selection,positive,1721645278596,undefined,964,barometer,neutral,negative;positive;neutral
1721645307,cd288710e9bf3387729f5dabac55861d,PennController,65,0,test,NULL,PennController,70,_Trial_,End,1721645278597,undefined,964,barometer,neutral,NULL
1721645307,cd288710e9bf3387729f5dabac55861d,PennController,109,0,test,NULL,PennController,114,_Trial_,Start,1721645278601,undefined,906,rug,neutral,NULL
1721645307,cd288710e9bf3387729f5dabac55861d,PennController,109,0,test,NULL,PennController,114,_Header_,Start,1721645278601,undefined,906,rug,neutral,NULL
1721645307,cd288710e9bf3387729f5dabac55861d,PennController,109,0,test,NULL,PennController,114,_Header_,End,1721645278853,undefined,906,rug,neutral,NULL
1721645307,cd288710e9bf3387729f5dabac55861d,PennController,109,0,test,NULL,Selector,unnamed-Selector,Selection,positive,1721645280266,undefined,906,rug,neutral,negative;positive;neutral
1721645307,cd288710e9bf3387729f5dabac55861d,PennController,109,0,test,NULL,PennController,114,_Trial_,End,1721645280267,undefined,906,rug,neutral,NULL
1721645307,cd288710e9bf3387729f5dabac55861d,PennController,86,0,test,NULL,PennController,91,_Trial_,Start,1721645280271,undefined,1059,goggle,neutral,NULL
1721645307,cd288710e9bf3387729f5dabac55861d,PennController,86,0,test,NULL,PennController,91,_Header_,Start,1721645280271,undefined,1059,goggle,neutral,NULL
1721645307,cd288710e9bf3387729f5dabac55861d,PennController,86,0,test,NULL,PennController,91,_Header_,End,1721645280524,undefined,1059,goggle,neutral,NULL
1721645307,cd288710e9bf3387729f5dabac55861d,PennController,86,0,test,NULL,Selector,unnamed-Selector,Selection,positive,1721645282090,undefined,1059,goggle,neutral,negative;positive;neutral
1721645307,cd288710e9bf3387729f5dabac55861d,PennController,86,0,test,NULL,PennController,91,_Trial_,End,1721645282091,undefined,1059,goggle,neutral,NULL
1721645307,cd288710e9bf3387729f5dabac55861d,PennController,72,0,test,NULL,PennController,77,_Trial_,Start,1721645282096,undefined,1302,column,neutral,NULL
1721645307,cd288710e9bf3387729f5dabac55861d,PennController,72,0,test,NULL,PennController,77,_Header_,Start,1721645282096,undefined,1302,column,neutral,NULL
1721645307,cd288710e9bf3387729f5dabac55861d,PennController,72,0,test,NULL,PennController,77,_Header_,End,1721645282346,undefined,1302,column,neutral,NULL
1721645307,cd288710e9bf3387729f5dabac55861d,PennController,72,0,test,NULL,Selector,unnamed-Selector,Selection,positive,1721645284153,undefined,1302,column,neutral,negative;positive;neutral
1721645307,cd288710e9bf3387729f5dabac55861d,PennController,72,0,test,NULL,PennController,77,_Trial_,End,1721645284154,undefined,1302,column,neutral,NULL
1721645307,cd288710e9bf3387729f5dabac55861d,PennController,108,0,test,NULL,PennController,113,_Trial_,Start,1721645284159,undefined,875,repose,neutral,NULL
1721645307,cd288710e9bf3387729f5dabac55861d,PennController,108,0,test,NULL,PennController,113,_Header_,Start,1721645284159,undefined,875,repose,neutral,NULL
1721645307,cd288710e9bf3387729f5dabac55861d,PennController,108,0,test,NULL,PennController,113,_Header_,End,1721645284412,undefined,875,repose,neutral,NULL
1721645307,cd288710e9bf3387729f5dabac55861d,PennController,108,0,test,NULL,Selector,unnamed-Selector,Selection,positive,1721645285791,undefined,875,repose,neutral,negative;positive;neutral
1721645307,cd288710e9bf3387729f5dabac55861d,PennController,108,0,test,NULL,PennController,113,_Trial_,End,1721645285792,undefined,875,repose,neutral,NULL
1721645307,cd288710e9bf3387729f5dabac55861d,PennController,120,0,test,NULL,PennController,125,_Trial_,Start,1721645285797,undefined,820,tongs,neutral,NULL
1721645307,cd288710e9bf3387729f5dabac55861d,PennController,120,0,test,NULL,PennController,125,_Header_,Start,1721645285797,undefined,820,tongs,neutral,NULL
1721645307,cd288710e9bf3387729f5dabac55861d,PennController,120,0,test,NULL,PennController,125,_Header_,End,1721645286048,undefined,820,tongs,neutral,NULL
1721645307,cd288710e9bf3387729f5dabac55861d,PennController,120,0,test,NULL,Selector,unnamed-Selector,Selection,positive,1721645287376,undefined,820,tongs,neutral,negative;positive;neutral
1721645307,cd288710e9bf3387729f5dabac55861d,PennController,120,0,test,NULL,PennController,125,_Trial_,End,1721645287377,undefined,820,tongs,neutral,NULL
